Trial,subjID,resp_iscorrect,verif_rt,descr_rt,T_verb,P_type,verif_ans,P_sentence,clear_responses,isactive,syn_voice,syn_corr,error_type_old,error_type,message
1,1,0,2.559166667,9.631944444,slap,AC,0,The cowboy slaps the ballerina.,A policeman slaps a boxer.,1,A,C,,0,
2,1,0,3.077222222,5.109722222,slap,PC,0,The nurse is slapped by  the policeman.,A cowboy slaps a dancer.,1,P,C,,0,
3,1,1,2.178611111,4.281944444,scold,AC,0,The waitress scolds the boxer.,A policeman scolds a dancer.,1,A,C,,0,
4,1,1,1.142222222,7.233055556,follow,PC,1,The ballerina is followed by the pirate.,A person follows a soldier.,1,P,C,,0,
5,1,0,1.6,5.953055556,push,AI,1,The chef push the clown.,A cowboy pushes a swimmer away.,1,A,I,,0,
6,1,1,1.170555556,4.236944444,chase,PC,1,The monk is chased by the policeman.,A pirate chases a robber.,1,P,C,,0,
7,1,1,1.274166667,4.606111111,kiss,AC,1,The artist kisses the ballerina.,A nun kisses a boxer.,1,A,C,,0,
8,1,1,0.7416666667,4.116388889,kiss,PC,1,The boxer is kissed by the artist.,A nun sends a dancer a kiss.,,P,C,,2,
9,1,0,1.066388889,4.147222222,follow,AC,0,The nun follows the cowboy.,A pirate follows a doctor.,1,A,C,,0,
10,1,1,0.8819444444,6.401666667,scold,PC,1,The doctor is scolded by the professor.,A policeman scolds a boxer.,1,P,C,,0,
11,1,1,1.509166667,6.814166667,touch,AI,0,The waitress touch the professor.,A sailor touches a swimmer.,1,A,I,,0,
12,1,0,0.8405555556,3.730833333,shoot,PI,1,The ballerina is shooted by the artist.,The chef shoots the swimmer.,1,P,I,,0,
13,1,1,0.9097222222,5.080833333,follow,AC,1,The nun follows the doctor.,A pirate follows a sailor.,1,A,C,,0,
14,1,1,0.9769444444,5.213611111,follow,PC,0,The ballerina is followed by the pirate.,A nun follows a boxer.,1,P,C,,0,
15,1,0,0.8161111111,5.971944444,kick,AI,1,The policeman kick the boxer.,The waitress kicks the customer.,1,A,I,,0,
16,1,1,1.202222222,3.384722222,pull,PI,0,The waitress is pullen by the pirate.,A boxer pulls a clown.,1,P,I,,0,
17,1,1,0.8563888889,5.312222222,punch,AC,1,The cowboy punches the swimmer.,An artist punches a clown.,1,A,C,,0,
18,1,0,0.925,5.332222222,tickle,PI,1,The robber is ticklen by the soldier.,A waitress tickles a monk.,1,P,I,,0,
19,1,1,0.9188888889,5.655277778,chase,AC,1,The nun chases the sailor.,The policeman chases the robber.,1,A,C,,0,
20,1,1,0.7436111111,5.656111111,kick,PI,0,The clown is kicken by the nun.,The waitress kicks the robber.,1,P,I,,0,
21,1,1,0.7316666667,4.6075,slap,AC,1,The cowboy slaps the professor.,A policeman slaps a swimmer.,1,A,C,,0,
22,1,1,0.79,5.660833333,scold,PC,0,The monk is scolded by the swimmer.,A professor scolds a soldier.,1,P,C,,0,
23,1,1,0.7855555556,3.494166667,punch,AC,0,The cowboy punches the nun.,The artist punched a monk.,1,A,C,,0,
24,1,1,0.7413888889,4.306666667,chase,PC,0,The swimmer is chased by the nun.,The doctor is chased by the waitress.,0,P,C,,0,
25,1,0,1.797222222,7.218611111,pull,AI,1,The boxer pull the soldier.,The pirate pulls the ballerina,1,A,I,,0,
26,1,1,0.8416666667,4.111111111,slap,PC,1,The clown is slapped by the policeman.,The cowboy slaps the sailor.,1,P,C,,0,
27,1,1,1.001944444,4.359444444,tickle,AI,0,The soldier tickle the boxer.,The waitress tickles the doctor.,1,A,I,,0,
28,1,1,0.6838888889,5.034444444,punch,PC,1,The ballerina is punched by the artist.,A cowboy punches a doctor.,1,P,C,,0,
29,1,1,1.084444444,3.423055556,shoot,AI,0,The actress shoot the robber.,The chef shoots a boxer.,1,A,I,,0,
30,1,1,1.384722222,7.083888889,punch,PC,0,The policeman is punched by the artist.,The cowboy punched a dancer.,1,P,C,,0,
31,1,1,2.132222222,6.921666667,chase,AC,0,The policeman chases the robber.,A policeman chases a swimmer.,1,A,C,,0,
32,1,1,0.7688888889,4.766666667,push,PI,0,The monk is pushen by the policeman.,The cowboy pushed the ballerina.,1,P,I,,0,
33,1,1,0.8880555556,4.549166667,kiss,AC,0,The pirate kisses the clown.,The artist kisses a soldier.,1,A,C,,0,
34,1,0,0.6838888889,4.091388889,touch,PI,1,The doctor is touchen by the waitress.,The sailor touched the clown.,1,P,I,,0,
35,1,1,0.8302777778,3.826666667,scold,AC,1,The policeman scolds the doctor.,A professor scolds a sailor.,1,A,C,,0,
36,1,1,0.8136111111,3.806388889,kiss,PC,0,The monk is kissed by the swimmer.,An artist kisses a clown.,1,P,C,,0,
37,3,1,0.8636111111,4.921666667,pull,AI,1,The boxer pull the soldier.,Thief pull the girl.,1,A,I,,1,
38,3,0,2.614444444,6.291944444,push,PI,0,The monk is pushen by the policeman.,The girl is pushen by the cowboy.,0,P,I,,1,
39,3,0,1.384166667,4.285555556,scold,AC,0,The waitress scolds the boxer.,The soldier scolds the woman.,1,A,C,,0,
40,3,1,2.431944444,11.66361111,follow,PC,1,The ballerina is followed by the pirate.,A solider is followed by the monk.,0,P,C,,0,
41,3,0,2.070277778,3.691666667,punch,AC,0,The cowboy punches the nun.,A painter punch the monk.,1,A,C,,1,
42,3,0,1.836944444,4.978611111,punch,PC,0,The policeman is punched by the artist.,A cowboy punch the woman.,1,P,C,,1,
43,3,0,1.649444444,3.066111111,shoot,AI,0,The actress shoot the robber.,The chef shoot the boxer.,1,A,I,,1,
44,3,1,1.321666667,3.233611111,follow,PC,0,The ballerina is followed by the pirate.,A boxer is followed by the monk.,0,P,C,,0,
45,3,1,1.639166667,8.728055556,chase,AC,0,The policeman chases the robber.,The swimmer is chased by the policeman.,0,A,C,,0,
46,3,1,1.735277778,4.8875,slap,PC,1,The clown is slapped by the policeman.,The sailor is slapped by the cowboy.,0,P,C,,0,
47,3,1,1.285833333,4.323333333,punch,AC,1,The cowboy punches the swimmer.,The painter punches the joker.,1,A,C,,0,
48,3,0,1.651111111,6.706111111,scold,PC,0,The monk is scolded by the swimmer.,The professor scolds the security guy.,1,P,C,,0,
49,3,0,0.7980555556,2.869444444,tickle,AI,0,The soldier tickle the boxer.,The waitress tickles the doctor.,1,A,I,,0,
50,3,0,0.9280555556,4.696666667,pull,PI,0,The waitress is pullen by the pirate.,The joker is pullen by the boxer.,0,P,I,,1,
51,3,1,1.636111111,3.345833333,slap,AC,1,The cowboy slaps the professor.,The policeman slaps the swimmer.,1,A,C,,0,
52,3,1,0.9683333333,10.86361111,touch,PI,1,The doctor is touchen by the waitress.,The clown is touchen by the sailor.,1,P,I,,1,
53,3,1,0.8602777778,4.725833333,touch,AI,0,The waitress touch the professor.,The sailor touch the swimmer.,1,A,I,,1,
54,3,1,1.363055556,3.946944444,shoot,PI,1,The ballerina is shooted by the artist.,The swimmer is shooted by the chef.,0,P,I,,1,
55,3,1,0.5733333333,3.2075,kick,AI,1,The policeman kick the boxer.,The waitress kick the clown.,1,A,I,,1,
56,3,1,0.9783333333,3.503055556,kiss,PC,1,The boxer is kissed by the artist.,The ballerina is kissed by the nun.,0,P,C,,0,
57,3,1,0.6772222222,2.9575,scold,AC,1,The policeman scolds the doctor.,The professor scolds the sailor.,1,A,C,,0,
58,3,0,1.395833333,6.345277778,kick,PI,0,The clown is kicken by the nun.,The waitress kicks the thief.,1,P,I,,0,
59,3,1,1.166944444,4.711944444,kiss,AC,0,The pirate kisses the clown.,The police is kissed by the artist.,0,A,C,,0,
60,3,1,1.879166667,3.988055556,scold,PC,1,The doctor is scolded by the professor.,The boxer is scolded by the policeman.,0,P,C,,0,
61,3,1,1.000555556,4.014444444,push,AI,1,The chef push the clown.,A cowboy push the swimmer.,1,A,I,,1,
62,3,1,0.7783333333,2.996666667,chase,PC,0,The swimmer is chased by the nun.,The doctor is chased by the waitress.,0,P,C,,0,
63,3,1,0.6444444444,4.214166667,chase,AC,1,The nun chases the sailor.,The policeman chases the thief.,1,A,C,,0,
64,3,1,1.786388889,6.3125,slap,PC,0,The nurse is slapped by  the policeman.,The cowboy slapped the ballerina.,1,P,C,,0,
65,3,1,0.8527777778,5.650277778,follow,AC,0,The nun follows the cowboy.,The pirate follows the doctor.,1,A,C,,0,
66,3,1,0.9933333333,4.738888889,chase,PC,1,The monk is chased by the policeman.,The thief is chased by the pirate.,0,P,C,,0,
67,3,1,0.7211111111,2.877222222,follow,AC,1,The nun follows the doctor.,The pirate follows the sailor.,1,A,C,,0,
68,3,1,1.010833333,3.971388889,tickle,PI,1,The robber is ticklen by the soldier.,The waitress tickles the monk.,1,P,I,,0,
69,3,1,0.8275,2.610555556,slap,AC,0,The cowboy slaps the ballerina.,The policeman slaps the boxer.,1,A,C,,0,
70,3,1,0.8483333333,3.724166667,kiss,PC,0,The monk is kissed by the swimmer.,The artist kisses the clown.,1,P,C,,0,
71,3,1,1.618055556,2.585,kiss,AC,1,The artist kisses the ballerina.,The nun kisses the boxer.,1,A,C,,0,
72,3,1,1.771666667,3.603333333,punch,PC,1,The ballerina is punched by the artist.,The cowboy punches the doctor.,1,P,C,,0,
73,4,0,1.261666667,5.176111111,tickle,AI,0,The soldier tickle the boxer.,The waitress tickles the doctor.,1,A,I,,0,
74,4,1,2.426111111,10.14138889,slap,PC,0,The nurse is slapped by  the policeman.,The ballerina is slapped by the cowboy.,0,P,C,,0,
75,4,1,1.7325,12.45027778,chase,AC,1,The nun chases the sailor.,The policeman chases the prisoner.,1,A,C,,0,
76,4,1,1.193055556,4.928055556,slap,PC,1,The clown is slapped by the policeman.,The sailor is slapped by the cowboy.,0,P,C,,0,
77,4,1,1.416944444,6.241111111,push,AI,1,The chef push the clown.,The cowboy pushes the swimmer.,1,A,I,,0,
78,4,1,1.706111111,5.665277778,follow,PC,0,The ballerina is followed by the pirate.,The nun is following the boxer.,1,P,C,,0,
79,4,1,1.377777778,6.0675,slap,AC,1,The cowboy slaps the professor.,The policeman slaps the swimmer.,1,A,C,,0,
80,4,1,1.388888889,8.063055556,punch,PC,0,The policeman is punched by the artist.,The cowboy punches the ballerina.,1,P,C,,0,
81,4,1,1.0475,3.912222222,punch,AC,1,The cowboy punches the swimmer.,The artist punches the clown.,1,A,C,,0,
82,4,1,1.347777778,3.373611111,kiss,PC,0,The monk is kissed by the swimmer.,The clown is kissed by the artist.,0,P,C,,0,
83,4,1,1.053611111,3.287777778,follow,AC,0,The nun follows the cowboy.,The pirate follows the doctor.,1,A,C,,0,
84,4,1,0.8580555556,5.329722222,kiss,PC,1,The boxer is kissed by the artist.,The ballerina is kissed by the nun.,0,P,C,,0,
85,4,1,1.959444444,4.120833333,pull,AI,1,The boxer pull the soldier.,The ballerina is pulled by the pirate.,0,A,I,,0,
86,4,1,1.1625,4.021388889,scold,PC,1,The doctor is scolded by the professor.,The boxer is scolded by the policeman.,0,P,C,,0,
87,4,1,0.8822222222,3.331944444,touch,AI,0,The waitress touch the professor.,The swimmer is touched by the sailor.,0,A,I,,0,
88,4,1,1.401944444,3.3475,touch,PI,1,The doctor is touchen by the waitress.,The clown is touched by the sailor.,0,P,I,,0,
89,4,1,1.114444444,3.6675,scold,AC,0,The waitress scolds the boxer.,The policeman scolds the ballerina.,1,A,C,,0,
90,4,1,1.007777778,3.705555556,pull,PI,0,The waitress is pullen by the pirate.,The clown is pulled by the boxer.,0,P,I,,0,
91,4,1,2.384444444,3.51,chase,AC,0,The policeman chases the robber.,The policeman chases the swimmer.,1,A,C,,0,
92,4,1,0.7741666667,2.974444444,kick,PI,0,The clown is kicken by the nun.,The waitress kicks the robber.,1,P,I,,0,
93,4,1,0.4713888889,4.551666667,kiss,AC,0,The pirate kisses the clown.,The artist kisses the soldier.,1,A,C,,0,
94,4,1,0.6602777778,5.378888889,push,PI,0,The monk is pushen by the policeman.,The cowboy pushes the ballerina.,1,P,I,,0,
95,4,1,2.5375,10.62138889,shoot,AI,0,The actress shoot the robber.,The chef shoots the boxer.,1,A,I,,0,
96,4,1,2.851666667,3.29,follow,PC,1,The ballerina is followed by the pirate.,The soldier is followed by the nun.,0,P,C,,0,
97,4,1,1.133333333,3.315,follow,AC,1,The nun follows the doctor.,The sailor is followed by the pirate.,0,A,C,,0,
98,4,1,0.7894444444,4.290277778,chase,PC,0,The swimmer is chased by the nun.,The waitress chases the doctor.,1,P,C,,0,
99,4,1,0.7516666667,6.100277778,scold,AC,1,The policeman scolds the doctor.,The professor scolds the sailor.,1,A,C,,0,
100,4,1,2.231111111,5.143611111,tickle,PI,1,The robber is ticklen by the soldier.,The monk is tickled by the waitress.,0,P,I,,0,
101,4,1,0.6166666667,2.536666667,kiss,AC,1,The artist kisses the ballerina.,The nun kisses the boxer.,1,A,C,,0,
102,4,1,0.7836111111,3.443611111,chase,PC,1,The monk is chased by the policeman.,The robber is chased by the pirate.,0,P,C,,0,
103,4,1,0.6836111111,2.865555556,slap,AC,0,The cowboy slaps the ballerina.,The policeman slaps the boxer.,1,A,C,,0,
104,4,1,0.8213888889,16.9925,shoot,PI,1,The ballerina is shooted by the artist.,The swimmer is shot by the chef.,0,P,I,,0,
105,4,1,0.6388888889,3.132222222,punch,AC,0,The cowboy punches the nun.,The artist punches the monk.,1,A,C,,0,
106,4,1,0.5036111111,3.036944444,punch,PC,1,The ballerina is punched by the artist.,The doctor is punched by the cowboy.,0,P,C,,0,
107,4,1,0.7044444444,4.747777778,kick,AI,1,The policeman kick the boxer.,The clown is kicked by the waitress.,0,A,I,,0,
108,4,1,0.5591666667,3.683611111,scold,PC,0,The monk is scolded by the swimmer.,The professor scolds the soldier.,1,P,C,,0,
109,5,1,0.7972222222,2.033055556,punch,AC,1,The cowboy punches the swimmer.,The artist punches the clown.,1,A,C,,0,
110,5,1,1.682222222,2.785,pull,PI,0,The waitress is pullen by the pirate.,The boxer pulls the clown with rope.,1,P,I,,0,
111,5,1,1.036944444,3.582777778,kiss,AC,1,The artist kisses the ballerina.,The woman kisses the boxer.,1,A,C,,0,
112,5,0,1.023055556,2.760277778,touch,PI,1,The doctor is touchen by the waitress.,The sailor touches the clown.,1,P,I,,0,
113,5,1,2.379722222,2.544166667,kiss,AC,0,The pirate kisses the clown.,The artist kisses the soldier.,1,A,C,,0,
114,5,1,0.8202777778,2.58,chase,PC,1,The monk is chased by the policeman.,The pirate chases the robber.,1,P,C,,0,
115,5,1,0.7477777778,2.0975,punch,AC,0,The cowboy punches the nun.,The artist punches the monk.,1,A,C,,0,
116,5,1,0.8975,2.858888889,follow,PC,0,The ballerina is followed by the pirate.,The woman follows the boxer.,1,P,C,,0,
117,5,1,0.4725,1.8375,slap,AC,0,The cowboy slaps the ballerina.,The policeman slaps the boxer.,1,A,C,,0,
118,5,1,0.9638888889,2.463888889,kick,PI,0,The clown is kicken by the nun.,The waitress kicks the robber.,1,P,I,,0,
119,5,1,1.626111111,1.864444444,kick,AI,1,The policeman kick the boxer.,The waitress kicks the clown.,1,A,I,,0,
120,5,0,1.2575,2.612222222,shoot,PI,1,The ballerina is shooted by the artist.,The chef shoots the swimmer.,1,P,I,,0,
121,5,0,1.369722222,1.79,shoot,AI,0,The actress shoot the robber.,The chef shoots the boxer.,1,A,I,,0,
122,5,1,1.684444444,1.714722222,scold,PC,1,The doctor is scolded by the professor.,The policeman scolds the boxer.,1,P,C,,0,
123,5,1,0.4233333333,2.844722222,scold,AC,0,The waitress scolds the boxer.,The policeman scolds the dancer.,1,A,C,,0,
124,5,1,1.101388889,2.235,kiss,PC,1,The boxer is kissed by the artist.,The nun kisses the dancer.,1,P,C,,0,
125,5,1,1.591388889,2.489444444,push,AI,1,The chef push the clown.,The cowboy pushes the swimmer.,1,A,I,,0,
126,5,1,1.293611111,2.59,chase,PC,0,The swimmer is chased by the nun.,The waitress chases the doctor.,1,P,C,,0,
127,5,1,1.516666667,1.930277778,tickle,AI,0,The soldier tickle the boxer.,The waitress tickles the doctor.,1,A,I,,0,
128,5,1,0.7194444444,3.630555556,scold,PC,0,The monk is scolded by the swimmer.,The soldier is scolded by the professor.,0,P,C,,0,
129,5,1,1.550833333,2.723888889,slap,AC,1,The cowboy slaps the professor.,The policeman slaps the swimmer.,1,A,C,,0,
130,5,1,1.168611111,3.091111111,follow,PC,1,The ballerina is followed by the pirate.,The soldier is followed by the nun.,0,P,C,,0,
131,5,1,0.6627777778,2.661111111,follow,AC,0,The nun follows the cowboy.,The pirate follows the doctor.,1,A,C,,0,
132,5,1,1.355,2.681666667,punch,PC,1,The ballerina is punched by the artist.,The cowboy punches the doctor.,1,P,C,,0,
133,5,1,2.620277778,2.035833333,chase,AC,0,The policeman chases the robber.,The policeman chases the swimmer.,1,A,C,,0,
134,5,1,1.230555556,2.565555556,slap,PC,1,The clown is slapped by the policeman.,The cowboy slaps the sailor.,1,P,C,,0,
135,5,1,1.343611111,2.585,scold,AC,1,The policeman scolds the doctor.,The professor scolds the sailor.,1,A,C,,0,
136,5,1,2.752777778,2.614444444,punch,PC,0,The policeman is punched by the artist.,The cowboy punches the dancer.,1,P,C,,0,
137,5,1,0.7525,1.970833333,pull,AI,1,The boxer pull the soldier.,The pirate pulls the dancer.,1,A,I,,0,
138,5,0,1.392777778,2.9675,tickle,PI,1,The robber is ticklen by the soldier.,The monk is trickled by the waitress.,0,P,I,,0,
139,5,1,0.5447222222,1.675833333,touch,AI,0,The waitress touch the professor.,The sailor touches the swimmer.,1,A,I,,0,
140,5,1,0.9708333333,2.081944444,slap,PC,0,The nurse is slapped by  the policeman.,The cowboy slaps the dancer.,1,P,C,,0,
141,5,1,0.7502777778,2.163888889,chase,AC,1,The nun chases the sailor.,The policeman chases the burglar.,1,A,C,,0,
142,5,1,0.8355555556,2.223611111,push,PI,0,The monk is pushen by the policeman.,The cowboy pushes the dancer.,1,P,I,,0,
143,5,1,0.8580555556,1.729166667,follow,AC,1,The nun follows the doctor.,The pirate follows the sailor.,1,A,C,,0,
144,5,1,0.7552777778,2.114722222,kiss,PC,0,The monk is kissed by the swimmer.,The artist kisses the clown.,1,P,C,,0,
145,6,1,1.288055556,3.476111111,follow,AC,0,The nun follows the cowboy.,The pirate follows the doctor,1,A,C,,0,
146,6,1,1.237222222,3.321388889,kick,PI,0,The clown is kicken by the nun.,The waitress kicks the burglar,1,P,I,,0,
147,6,1,2.276944444,3.769166667,tickle,AI,0,The soldier tickle the boxer.,The waitress tickles the doctor,1,A,I,,0,
148,6,1,1.869166667,3.125,shoot,PI,1,The ballerina is shooted by the artist.,The chef shoots the swimmer,1,P,I,,0,
149,6,1,1.427777778,4.256111111,chase,AC,0,The policeman chases the robber.,The policeman chases the swimmer,1,A,C,,0,
150,6,1,1.022777778,3.2575,slap,PC,1,The clown is slapped by the policeman.,The cowboy slaps the sailor,1,P,C,,0,
151,6,1,0.8633333333,3.5075,push,AI,1,The chef push the clown.,The cowboy pushes the swimmer,1,A,I,,0,
152,6,1,1.456111111,4.966388889,tickle,PI,1,The robber is ticklen by the soldier.,The waitress tickles the priest,1,P,I,,0,
153,6,1,0.6375,2.888888889,punch,AC,1,The cowboy punches the swimmer.,The artist punches the clown,1,A,C,,0,
154,6,1,0.4622222222,2.976944444,chase,PC,0,The swimmer is chased by the nun.,The waitress chases the doctor,1,P,C,,0,
155,6,1,0.6661111111,2.84,slap,AC,1,The cowboy slaps the professor.,The policeman slaps the swimmer,1,A,C,,0,
156,6,1,1.680555556,3.7975,chase,PC,1,The monk is chased by the policeman.,The robber is chased by the pirate,0,P,C,,0,
157,6,1,0.4186111111,4.3,scold,AC,0,The waitress scolds the boxer.,The policeman scolds the ballerina,1,A,C,,0,
158,6,1,0.4697222222,3.205833333,follow,PC,1,The ballerina is followed by the pirate.,The nun follows the soldier,1,P,C,,0,
159,6,1,0.3825,2.932777778,follow,AC,1,The nun follows the doctor.,The pirate follows the sailor,1,A,C,,0,
160,6,1,0.5452777778,3.077222222,scold,PC,0,The monk is scolded by the swimmer.,The professor scolds the soldier,1,P,C,,0,
161,6,1,0.6294444444,2.607222222,kiss,AC,1,The artist kisses the ballerina.,The nun kisses the boxer,1,A,C,,0,
162,6,1,1.196666667,4.040277778,touch,PI,1,The doctor is touchen by the waitress.,The sailor touches the clown,1,P,I,,0,
163,6,1,0.7191666667,2.340555556,scold,AC,1,The policeman scolds the doctor.,The professor scolds the sailor,1,A,C,,0,
164,6,1,0.6047222222,3.511388889,push,PI,0,The monk is pushen by the policeman.,The cowboy pushes the ballerina,1,P,I,,0,
165,6,1,0.3802777778,3.27,punch,AC,0,The cowboy punches the nun.,The artist punches the monk,1,A,C,,0,
166,6,1,0.5088888889,2.156111111,kiss,PC,1,The boxer is kissed by the artist.,The nun kisses the ballerina,1,P,C,,0,
167,6,1,1.822222222,2.481111111,chase,AC,1,The nun chases the sailor.,The policeman chases the robber,1,A,C,,0,
168,6,1,0.6913888889,3.810555556,punch,PC,0,The policeman is punched by the artist.,The cowboy punches the ballerina,1,P,C,,0,
169,6,1,1.155555556,2.316388889,touch,AI,0,The waitress touch the professor.,The sailor touches the swimmer,1,A,I,,0,
170,6,1,0.8705555556,2.501666667,slap,PC,0,The nurse is slapped by  the policeman.,The cowboy slaps the ballerina,1,P,C,,0,
171,6,1,0.3352777778,2.898055556,kiss,AC,0,The pirate kisses the clown.,The artist kisses the soldier,1,A,C,,0,
172,6,1,0.4925,2.803055556,kiss,PC,0,The monk is kissed by the swimmer.,The artist kisses the clown,1,P,C,,0,
173,6,1,0.9044444444,2.992222222,pull,AI,1,The boxer pull the soldier.,The pirate pulls the ballerina,1,A,I,,0,
174,6,1,0.5388888889,3.331111111,follow,PC,0,The ballerina is followed by the pirate.,The nun follows the boxer,1,P,C,,0,
175,6,1,0.4980555556,2.676111111,kick,AI,1,The policeman kick the boxer.,The waitress kicks the clown,1,A,I,,0,
176,6,1,0.7983333333,2.290277778,scold,PC,1,The doctor is scolded by the professor.,The policeman scolds the boxer,1,P,C,,0,
177,6,1,0.6263888889,2.662222222,shoot,AI,0,The actress shoot the robber.,The chef shoots the boxer,1,A,I,,0,
178,6,1,1.7475,1.970833333,pull,PI,0,The waitress is pullen by the pirate.,The boxer pulls the clown,1,P,I,,0,
179,6,1,0.4280555556,2.7275,slap,AC,0,The cowboy slaps the ballerina.,The policeman slaps the boxer,1,A,C,,0,
180,6,1,0.4825,2.675,punch,PC,1,The ballerina is punched by the artist.,The cowboy punches the doctor,1,P,C,,0,
181,7,1,4.368333333,4.937777778,shoot,AI,0,The actress shoot the robber.,the chef shoots the boxer,1,A,I,,0,
182,7,0,2.296666667,6.788055556,slap,PC,0,The nurse is slapped by  the policeman.,The dancer is slapped by the cowboy,0,P,C,,0,
183,7,1,1.077222222,4.136944444,push,AI,1,The chef push the clown.,the cowboy pushes the swimmer,1,A,I,,0,
184,7,1,0.8525,3.376111111,pull,PI,0,The waitress is pullen by the pirate.,the boxer pulls the clown,1,P,I,,0,
185,7,1,0.8225,2.902777778,chase,AC,1,The nun chases the sailor.,the cop chases the robber,1,A,C,,0,
186,7,1,0.9733333333,3.728055556,push,PI,0,The monk is pushen by the policeman.,the cowboy pushes the dancer,1,P,I,,0,
187,7,1,0.8241666667,3.671666667,tickle,AI,0,The soldier tickle the boxer.,the waitress tickles the Doctor,1,A,I,,0,
188,7,1,2.975833333,4.160277778,chase,PC,0,The swimmer is chased by the nun.,the waitress chases the doctor,1,P,C,,0,
189,7,0,3.279166667,3.018055556,follow,AC,0,The nun follows the cowboy.,the pirate follows the doctor,1,A,C,,0,
190,7,0,0.84,3.619444444,touch,PI,1,The doctor is touchen by the waitress.,the clown is touched by the sailor,0,P,I,,0,
191,7,1,1.319444444,6.526388889,scold,AC,1,The policeman scolds the doctor.,the professor scolds the sailor,1,A,C,,0,
192,7,1,0.7647222222,3.646111111,chase,PC,1,The monk is chased by the policeman.,the pirate chases the robber,1,P,C,,0,
193,7,1,0.9377777778,4.855833333,slap,AC,0,The cowboy slaps the ballerina.,the cop slaps the boxer,1,A,C,,0,
194,7,1,0.9722222222,4.300555556,kiss,PC,1,The boxer is kissed by the artist.,the dancer is kissed by the nun,0,P,C,,0,
195,7,0,4.260833333,3.6175,kick,AI,1,The policeman kick the boxer.,the waitress kicks the clown,1,A,I,,0,
196,7,1,0.9488888889,3.790833333,slap,PC,1,The clown is slapped by the policeman.,the sailor is slapped by the cowboy,0,P,C,,0,
197,7,1,1.001111111,2.381388889,scold,AC,0,The waitress scolds the boxer.,the cop scolds the dancer,1,A,C,,0,
198,7,1,0.9313888889,3.846388889,kick,PI,0,The clown is kicken by the nun.,the robber is kicked by the waitress,0,P,I,,0,
199,7,1,1.295833333,3.368333333,kiss,AC,1,The artist kisses the ballerina.,the boxer is kissed by the nun,0,A,C,,0,
200,7,1,0.8547222222,2.777777778,follow,PC,1,The ballerina is followed by the pirate.,the nun follows the soldier,1,P,C,,0,
201,7,1,0.7533333333,3.213611111,kiss,AC,0,The pirate kisses the clown.,the artist kisses the soldier,1,A,C,,0,
202,7,0,0.6436111111,2.780277778,shoot,PI,1,The ballerina is shooted by the artist.,the chef shoots the swimmer,1,P,I,,0,
203,7,1,1.062222222,2.605833333,slap,AC,1,The cowboy slaps the professor.,the cop slaps the dancer,1,A,C,,0,
204,7,1,2.174444444,2.968611111,kiss,PC,0,The monk is kissed by the swimmer.,the artist kisses the clown,1,P,C,,0,
205,7,1,1.500277778,2.769444444,punch,AC,1,The cowboy punches the swimmer.,the artist punches the clown,1,A,C,,0,
206,7,1,1.549444444,4.5825,punch,PC,1,The ballerina is punched by the artist.,the doctor is punched by the cowboy,0,P,C,,0,
207,7,1,1.028888889,3.55,touch,AI,0,The waitress touch the professor.,the sailor touched the swimmer,1,A,I,,0,
208,7,0,4.221388889,2.849722222,tickle,PI,1,The robber is ticklen by the soldier.,the waitress tickles the monk,1,P,I,,0,
209,7,1,1.844444444,4.003611111,punch,AC,0,The cowboy punches the nun.,the artist punches the monk,1,A,C,,0,
210,7,1,0.7136111111,2.796388889,follow,PC,0,The ballerina is followed by the pirate.,the nun follows the boxer,1,P,C,,0,
211,7,1,0.7505555556,2.536944444,follow,AC,1,The nun follows the doctor.,the pirate follows the sailor,1,A,C,,0,
212,7,1,0.7805555556,3.282222222,punch,PC,0,The policeman is punched by the artist.,the cowboy punches the dancer,1,P,C,,0,
213,7,1,0.8272222222,3.122222222,chase,AC,0,The policeman chases the robber.,the cop chases the swimmer,1,A,C,,0,
214,7,1,1.029444444,2.466944444,scold,PC,1,The doctor is scolded by the professor.,the cop scolds the boxer,1,P,C,,0,
215,7,1,0.7277777778,2.637222222,pull,AI,1,The boxer pull the soldier.,the pirate pulls the dancer,1,A,I,,0,
216,7,1,0.7658333333,3.221111111,scold,PC,0,The monk is scolded by the swimmer.,the professor scolds the soldier,1,P,C,,0,
217,8,1,5.386111111,19.64638889,shoot,AI,0,The actress shoot the robber.,A man shoot the robber.,1,A,I,,1,
218,8,0,8.656111111,28.94444444,touch,PI,1,The doctor is touchen by the waitress.,A policeman touch the innocent man.,1,P,I,,1,
219,8,1,7.274444444,20.70444444,punch,AC,1,The cowboy punches the swimmer.,The rude man punches the innocent guy.,1,A,C,,0,
220,8,0,3.706388889,21.44638889,punch,PC,1,The ballerina is punched by the artist.,A doctor is punched by the cowboy.,0,P,C,,0,
221,8,1,10.85972222,14.45138889,touch,AI,0,The waitress touch the professor.,Swimming man touched by the security.,0,A,I,,1,
222,8,1,6.358055556,20.44444444,punch,PC,0,The policeman is punched by the artist.,A Woman is punched by the cowboy.,0,P,C,,0,
223,8,0,9.486388889,18.19361111,kiss,AC,0,The pirate kisses the clown.,The woman kisses the hunter man.,1,A,C,,0,
224,8,1,6.279722222,19.22694444,scold,PC,1,The doctor is scolded by the professor.,The man scolded by the safe guard.,0,P,C,,1,
225,8,1,5.699444444,4.0825,chase,AC,0,The policeman chases the robber.,The policeman chases the robber.,1,A,C,,0,
226,8,1,5.481111111,76.21972222,chase,PC,0,The swimmer is chased by the nun.,The doctor is chased by the mentally affected women.,0,P,C,,0,
227,8,1,4.039166667,22.37027778,slap,AC,1,The cowboy slaps the professor.,The cowboy slaps the swimmer.,1,A,C,,0,
228,8,0,6.762222222,17.81194444,pull,PI,0,The waitress is pullen by the pirate.,The man is pulled by the boxer.,0,P,I,,0,
229,8,0,4.6825,8.254722222,scold,AC,0,The waitress scolds the boxer.,The waitress scolds by the cowboy.,0,A,C,,1,
230,8,1,165.9294444,24.57416667,chase,PC,1,The monk is chased by the policeman.,The thief is chased by the karate man.,0,P,C,,0,
231,8,1,4.355555556,17.1425,kiss,AC,1,The artist kisses the ballerina.,The boxer kisses the nun.,1,A,C,,0,
232,8,1,4.554166667,23.74583333,kiss,PC,0,The monk is kissed by the swimmer.,A man is kissed by the painter.,0,P,C,,0,
233,8,1,2.961666667,13.00444444,punch,AC,0,The cowboy punches the nun.,The nun is punched by the painter.,0,A,C,,0,
234,8,1,2.888611111,18.99472222,scold,PC,0,The monk is scolded by the swimmer.,The baseball player is scolded by the monk.,0,P,C,,0,
235,8,0,3.366111111,5.110833333,slap,AC,0,The cowboy slaps the ballerina.,The cowboy slaps the boxer.,1,A,C,,0,
236,8,1,4.68,8.517222222,push,PI,0,The monk is pushen by the policeman.,The monk is pushen by the cowboy.,0,P,I,,1,
237,8,1,3.0925,12.81916667,pull,AI,1,The boxer pull the soldier.,The cowboy pull the monk.,1,A,I,,1,
238,8,1,2.368888889,36.71694444,kick,PI,0,The clown is kicken by the nun.,The thief is kicked by the customer.,0,P,I,,0,
239,8,1,3.223888889,14.91972222,scold,AC,1,The policeman scolds the doctor.,The professor scolds the policeman.,1,A,C,,0,
240,8,1,3.265,8.396944444,slap,PC,1,The clown is slapped by the policeman.,The clown is slapped by the cowboy.,0,P,C,,0,
241,8,1,2.424722222,15.405,follow,AC,1,The nun follows the doctor.,A thief follows the officer.,1,A,C,,0,
242,8,1,7.413055556,7.825277778,follow,PC,0,The ballerina is followed by the pirate.,The boxer is followed by the nun.,0,P,C,,0,
243,8,1,3.181388889,9.770277778,chase,AC,1,The nun chases the sailor.,The policeman chases the thief.,1,A,C,,0,
244,8,1,4.028055556,22.89888889,shoot,PI,1,The ballerina is shooted by the artist.,The swimmer is shooted by the cook.,0,P,I,,1,
245,8,1,4.143333333,29.23,tickle,AI,0,The soldier tickle the boxer.,The doctor tickle the supplier.,1,A,I,,1,
246,8,1,2.229444444,8.841944444,kiss,PC,1,The boxer is kissed by the artist.,The nun is kissed by the dancer.,0,P,C,,0,
247,8,1,9.924444444,9.684444444,push,AI,1,The chef push the clown.,The policeman push the swimmer.,1,A,I,,1,
248,8,0,5.339444444,8.238888889,slap,PC,0,The nurse is slapped by  the policeman.,The dancer is slapped by the cowboy.,0,P,C,,0,
249,8,1,4.411944444,15.53083333,follow,AC,0,The nun follows the cowboy.,The doctor followed by the thief.,0,A,C,,1,
250,8,1,3.213055556,6.386388889,tickle,PI,1,The robber is ticklen by the soldier.,The nun is ticklen by the supplier.,0,P,I,,1,
251,8,1,2.065833333,34.975,kick,AI,1,The policeman kick the boxer.,The supplier kick the clown.,1,A,I,,1,
252,8,1,5.724166667,6.481111111,follow,PC,1,The ballerina is followed by the pirate.,The policeman is followed by the nun.,0,P,C,,0,
253,9,1,1.790277778,5.594166667,chase,AC,0,The policeman chases the robber.,the policeman is chasing the swimmer,1,A,C,,0,
254,9,1,1.094166667,3.367777778,scold,PC,1,The doctor is scolded by the professor.,the boxer is being scolded,0,P,C,,1,
255,9,1,1.265,4.966944444,touch,AI,0,The waitress touch the professor.,the sailor touches the swimmer,1,A,I,,0,
256,9,1,1.6,4.8,push,PI,0,The monk is pushen by the policeman.,the cowboy pushes the ballerina,1,P,I,,0,
257,9,1,1.276944444,4.092222222,tickle,AI,0,The soldier tickle the boxer.,the waitress tickles the doctor,1,A,I,,0,
258,9,1,1.294722222,4.516111111,pull,PI,0,The waitress is pullen by the pirate.,the clown is pulled by the boxer,0,P,I,,0,
259,9,1,0.7133333333,3.653611111,slap,AC,0,The cowboy slaps the ballerina.,the boxer was slapped,0,A,C,,1,
260,9,1,1.058333333,7.313611111,kiss,PC,1,The boxer is kissed by the artist.,the priest and the ballerina kiss,,P,C,,2,
261,9,1,1.876666667,3.165555556,chase,AC,1,The nun chases the sailor.,the policeman chases the robber,1,A,C,,0,
262,9,1,0.6977777778,3.718611111,punch,PC,0,The policeman is punched by the artist.,the ballerina is punched by the cowboy,0,P,C,,0,
263,9,1,0.7916666667,3.308333333,scold,AC,1,The policeman scolds the doctor.,the sailor is scolded by the professor,0,A,C,,0,
264,9,1,0.5627777778,2.999166667,chase,PC,0,The swimmer is chased by the nun.,the doctor is chased by the waitress,0,P,C,,0,
265,9,1,0.6822222222,4.734166667,follow,AC,1,The nun follows the doctor.,the sailor is followed by the pirate,0,A,C,,0,
266,9,1,0.7916666667,3.336666667,slap,PC,0,The nurse is slapped by  the policeman.,the cowboy slapped the ballerina,1,P,C,,0,
267,9,1,0.5675,2.555833333,scold,AC,0,The waitress scolds the boxer.,the policeman scolds the ballerina,1,A,C,,0,
268,9,1,0.5041666667,3.189722222,slap,PC,1,The clown is slapped by the policeman.,the sailor is slapped by the cowboy,0,P,C,,0,
269,9,1,0.7841666667,3.236111111,slap,AC,1,The cowboy slaps the professor.,the policeman slaps the swimmer,1,A,C,,0,
270,9,1,2.577777778,2.991944444,shoot,PI,1,The ballerina is shooted by the artist.,the swimmer is shot by the cook,0,P,I,,0,
271,9,1,0.9288888889,3.758333333,kick,AI,1,The policeman kick the boxer.,the waitress kicks the clown,1,A,I,,0,
272,9,0,0.7330555556,3.111944444,touch,PI,1,The doctor is touchen by the waitress.,the clown is touched by the sailor,0,P,I,,0,
273,9,1,0.9436111111,3.414444444,pull,AI,1,The boxer pull the soldier.,the pirate pulls the ballerina,1,A,I,,0,
274,9,0,0.9827777778,4.094166667,tickle,PI,1,The robber is ticklen by the soldier.,the waitress tickles the monk,1,P,I,,0,
275,9,1,0.7436111111,2.214166667,kiss,AC,1,The artist kisses the ballerina.,the nun kisses the boxer,1,A,C,,0,
276,9,1,0.4583333333,2.754444444,follow,PC,0,The ballerina is followed by the pirate.,the boxer is followed by the nun,0,P,C,,0,
277,9,1,1.538333333,2.526388889,shoot,AI,0,The actress shoot the robber.,the cook shoots the boxer,1,A,I,,0,
278,9,1,0.6422222222,2.145277778,follow,PC,1,The ballerina is followed by the pirate.,the soldier is followed by the nun,0,P,C,,0,
279,9,1,0.55,2.815,punch,AC,1,The cowboy punches the swimmer.,the artist punches the clown,1,A,C,,0,
280,9,1,1.103888889,3.719444444,punch,PC,1,The ballerina is punched by the artist.,the cowboy punches the doctor,1,P,C,,0,
281,9,1,1.008611111,2.725555556,push,AI,1,The chef push the clown.,the cowboy pushes the swimmer,1,A,I,,0,
282,9,1,0.5341666667,2.465555556,chase,PC,1,The monk is chased by the policeman.,the robber is chased by the pirate,0,P,C,,0,
283,9,1,0.7019444444,3.171666667,follow,AC,0,The nun follows the cowboy.,the pirate follows the doctor,1,A,C,,0,
284,9,1,0.5966666667,2.796666667,kick,PI,0,The clown is kicken by the nun.,the waitress kicks the robber,1,P,I,,0,
285,9,1,0.7766666667,2.265,punch,AC,0,The cowboy punches the nun.,the artist punches the monk,1,A,C,,0,
286,9,1,0.6619444444,3.058333333,scold,PC,0,The monk is scolded by the swimmer.,the soldier is scolded by the professor,0,P,C,,0,
287,9,1,0.5705555556,2.108055556,kiss,AC,0,The pirate kisses the clown.,the artist kisses the soldier,1,A,C,,0,
288,9,1,0.3947222222,2.576666667,kiss,PC,0,The monk is kissed by the swimmer.,the clown kisses the artist,1,P,C,,0,
289,13,1,1.109444444,4.626944444,scold,AC,1,The policeman scolds the doctor.,The professor scolds the sailor.,1,A,C,,0,
290,13,1,1.247222222,3.135555556,kick,PI,0,The clown is kicken by the nun.,The burglar is kicked by the waitress.,0,P,I,,0,
291,13,1,0.6316666667,2.689722222,kiss,AC,0,The pirate kisses the clown.,The artist kisses the soldier.,1,A,C,,0,
292,13,1,0.8747222222,3.441111111,chase,PC,0,The swimmer is chased by the nun.,The waitress chases the doctor.,1,P,C,,0,
293,13,1,0.4994444444,2.090833333,punch,AC,0,The cowboy punches the nun.,The artist punches the monk.,1,A,C,,0,
294,13,1,0.6330555556,1.755,kiss,PC,1,The boxer is kissed by the artist.,The nun kisses the dancer.,1,P,C,,0,
295,13,1,0.5252777778,1.391111111,shoot,AI,0,The actress shoot the robber.,The chef shot the boxer.,1,A,I,,0,
296,13,1,0.5233333333,1.408333333,pull,PI,0,The waitress is pullen by the pirate.,The boxer pulls the clown.,1,P,I,,0,
297,13,1,0.8561111111,1.980833333,chase,AC,1,The nun chases the sailor.,The cop chases the robber.,1,A,C,,0,
298,13,1,0.5016666667,2.900277778,follow,PC,1,The ballerina is followed by the pirate.,The nun is following the soldier.,1,P,C,,0,
299,13,1,0.6780555556,2.648333333,kiss,AC,1,The artist kisses the ballerina.,The nun is kissing the boxer.,1,A,C,,0,
300,13,1,0.4358333333,1.725277778,follow,PC,0,The ballerina is followed by the pirate.,The nun is following the boxer.,1,P,C,,0,
301,13,1,0.5763888889,2.317777778,kick,AI,1,The policeman kick the boxer.,The waitress kicked the clown.,1,A,I,,0,
302,13,1,0.7822222222,2.285833333,scold,PC,1,The doctor is scolded by the professor.,The policeman scolds the boxer.,1,P,C,,0,
303,13,1,0.3411111111,2.200555556,push,AI,1,The chef push the clown.,The cowboy pushed the swimmer.,1,A,I,,0,
304,13,1,0.5761111111,2.179444444,punch,PC,0,The policeman is punched by the artist.,The ballerina was punched by the cowboy.,0,P,C,,0,
305,13,1,0.6911111111,1.695277778,tickle,AI,0,The soldier tickle the boxer.,The waitress tickled the doctor.,1,A,I,,0,
306,13,0,2.059722222,1.723888889,shoot,PI,1,The ballerina is shooted by the artist.,The swimmer was shot by the chef.,0,P,I,,0,
307,13,1,1.150833333,3.583611111,scold,AC,0,The waitress scolds the boxer.,The policeman is scolding the ballerina.,1,A,C,,0,
308,13,1,0.8891666667,2.667222222,punch,PC,1,The ballerina is punched by the artist.,The cowboy punched the doctor.,1,P,C,,0,
309,13,1,0.3794444444,1.974722222,slap,AC,1,The cowboy slaps the professor.,The policeman slaps the swimmer.,1,A,C,,0,
310,13,1,0.4938888889,1.797222222,kiss,PC,0,The monk is kissed by the swimmer.,The artist is kissing the clown.,1,P,C,,0,
311,13,1,0.5319444444,3.229444444,follow,AC,1,The nun follows the doctor.,The sailor is followed by the pirate.,0,A,C,,0,
312,13,1,0.6102777778,2.1775,slap,PC,1,The clown is slapped by the policeman.,The cowboy slapped the sailor.,1,P,C,,0,
313,13,1,0.665,2.024722222,slap,AC,0,The cowboy slaps the ballerina.,The policeman slapped the boxer.,1,A,C,,0,
314,13,1,0.5583333333,1.668888889,chase,PC,1,The monk is chased by the policeman.,The pirate chases the robber.,1,P,C,,0,
315,13,1,0.5444444444,2.013611111,touch,AI,0,The waitress touch the professor.,The sailor touches the swimmer.,1,A,I,,0,
316,13,1,0.4172222222,2.197777778,slap,PC,0,The nurse is slapped by  the policeman.,The cowboy slapped the ballerina.,1,P,C,,0,
317,13,1,0.4208333333,2.526388889,punch,AC,1,The cowboy punches the swimmer.,The artist punched the clown.,1,A,C,,0,
318,13,1,1.048333333,2.219444444,push,PI,0,The monk is pushen by the policeman.,The cowboy is pushing the ballerina.,1,P,I,,0,
319,13,1,0.5119444444,1.798055556,follow,AC,0,The nun follows the cowboy.,The pirate follows the doctor.,1,A,C,,0,
320,13,0,1.058055556,2.713333333,tickle,PI,1,The robber is ticklen by the soldier.,The waitress tickles the monk.,1,P,I,,0,
321,13,1,0.5416666667,2.483611111,pull,AI,1,The boxer pull the soldier.,The pirate pulls the ballerina.,1,A,I,,0,
322,13,1,0.9227777778,2.397222222,scold,PC,0,The monk is scolded by the swimmer.,The professor scolds the soldier.,1,P,C,,0,
323,13,1,0.4811111111,1.805277778,chase,AC,0,The policeman chases the robber.,The policeman chases the swimmer.,1,A,C,,0,
324,13,0,0.9794444444,2.785555556,touch,PI,1,The doctor is touchen by the waitress.,The sailor touches the clown.,1,P,I,,0,
325,14,1,2.064444444,6.854166667,slap,AC,0,The cowboy slaps the ballerina.,The policeman slaps the boxer,1,A,C,,0,
326,14,1,1.379722222,7.971388889,follow,PC,1,The ballerina is followed by the pirate.,A nun follows a soldier,1,P,C,,0,
327,14,1,1.086388889,5.652777778,tickle,AI,0,The soldier tickle the boxer.,The waitress tickles a doctor,1,A,I,,0,
328,14,1,1.094444444,8.4675,pull,PI,0,The waitress is pullen by the pirate.,A boxer pulls the clown,1,P,I,,0,
329,14,1,0.8055555556,6.164444444,kiss,AC,0,The pirate kisses the clown.,The painter kisses the soldier,1,A,C,,0,
330,14,1,1.066111111,6.925555556,punch,PC,1,The ballerina is punched by the artist.,The cowboy punches the doctor,1,P,C,,0,
331,14,1,0.7366666667,7.641388889,follow,AC,1,The nun follows the doctor.,A pirate follows the sailor,1,A,C,,0,
332,14,1,6.676944444,6.409444444,shoot,PI,1,The ballerina is shooted by the artist.,The chef shoots the diver,1,P,I,,0,
333,14,1,0.7558333333,6.762222222,scold,AC,1,The policeman scolds the doctor.,The professor scolds a sailor,1,A,C,,0,
334,14,1,1.250555556,5.648055556,chase,PC,1,The monk is chased by the policeman.,A sailor chases a robber,1,P,C,,0,
335,14,0,1.324444444,5.089444444,touch,AI,0,The waitress touch the professor.,The sailor touches the diver,1,A,I,,0,
336,14,1,1.073888889,9.188888889,chase,PC,0,The swimmer is chased by the nun.,The doctor is chased by a waitress,0,P,C,,0,
337,14,1,0.7675,5.570277778,follow,AC,0,The nun follows the cowboy.,A pirate follows the doctor,1,A,C,,0,
338,14,1,0.9563888889,6.56,punch,PC,0,The policeman is punched by the artist.,The cowboy punches a ballerina,1,P,C,,0,
339,14,1,0.9694444444,5.142222222,punch,AC,1,The cowboy punches the swimmer.,The artist punches the clown,1,A,C,,0,
340,14,1,1.338333333,5.3325,kiss,PC,0,The monk is kissed by the swimmer.,An artist kisses a clown,1,P,C,,0,
341,14,1,0.8811111111,5.671666667,shoot,AI,0,The actress shoot the robber.,The chef shoots the boxer,1,A,I,,0,
342,14,1,1.711111111,6.895833333,tickle,PI,1,The robber is ticklen by the soldier.,A monk is tickled by the waitress,0,P,I,,0,
343,14,1,1.272777778,6.091666667,kick,AI,1,The policeman kick the boxer.,The waitress kicks the clown,1,A,I,,0,
344,14,1,1.368333333,5.216944444,scold,PC,1,The doctor is scolded by the professor.,The policeman scolds the boxer,1,P,C,,0,
345,14,1,1.846111111,6.681111111,pull,AI,1,The boxer pull the soldier.,The pirate pulls the ballerina,1,A,I,,0,
346,14,1,1.182222222,5.6975,kiss,PC,1,The boxer is kissed by the artist.,The nun kisses the ballerina,1,P,C,,0,
347,14,1,1.401666667,5.480833333,push,AI,1,The chef push the clown.,The cowboy pushes the swimmer,1,A,I,,0,
348,14,1,1.255833333,7.255277778,push,PI,0,The monk is pushen by the policeman.,The ballerina is pushed by the cowboy,0,P,I,,0,
349,14,1,0.9886111111,7.384444444,punch,AC,0,The cowboy punches the nun.,The monk is punched by the artist,0,A,C,,0,
350,14,1,0.6244444444,6.287222222,follow,PC,0,The ballerina is followed by the pirate.,The nun follows the boxer,1,P,C,,0,
351,14,1,0.7983333333,4.094722222,kiss,AC,1,The artist kisses the ballerina.,The nun kisses the boxer,1,A,C,,0,
352,14,1,0.9147222222,5.838888889,scold,PC,0,The monk is scolded by the swimmer.,The professor scolds the soldier,1,P,C,,0,
353,14,1,0.9752777778,6.078055556,chase,AC,1,The nun chases the sailor.,The policeman chases the robber,1,A,C,,0,
354,14,1,0.8775,6.793611111,slap,PC,1,The clown is slapped by the policeman.,The cowboy slaps the sailor,1,P,C,,0,
355,14,1,0.7188888889,5.319444444,slap,AC,1,The cowboy slaps the professor.,The policeman slaps the swimmer,1,A,C,,0,
356,14,1,0.6836111111,5.183333333,slap,PC,0,The nurse is slapped by  the policeman.,The cowboy slaps the ballerina,1,P,C,,0,
357,14,1,0.6027777778,6.011666667,chase,AC,0,The policeman chases the robber.,The policeman chases the swimmer,1,A,C,,0,
358,14,1,0.975,5.761944444,kick,PI,0,The clown is kicken by the nun.,The robber is kicked by the waitress,0,P,I,,0,
359,14,1,0.81,4.732777778,scold,AC,0,The waitress scolds the boxer.,The policeman scolds the ballerina,1,A,C,,0,
360,14,1,1.271111111,5.881111111,touch,PI,1,The doctor is touchen by the waitress.,The clown is touched by the sailor,0,P,I,,0,
361,15,0,1.630833333,33.74388889,punch,AC,0,The cowboy punches the nun.,He punched him on  his stomach,1,A,C,,2,
362,15,0,6.872777778,10.76611111,kick,PI,0,The clown is kicken by the nun.,The girl is kicked the boy's leg,0,P,I,,1,
363,15,0,6.185833333,8.406111111,kiss,AC,0,The pirate kisses the clown.,The lady is kissing the soldier in his cheeks,1,A,C,,0,
364,15,1,5.1725,7.518055556,punch,PC,1,The ballerina is punched by the artist.,The cow boy punched the doctor,1,P,C,,0,
365,15,1,2.287777778,15.07444444,kiss,AC,1,The artist kisses the ballerina.,The nun is kissing the boxer in his lips,1,A,C,,0,
366,15,1,2.541388889,7.792222222,slap,PC,0,The nurse is slapped by  the policeman.,The cow boy slapped the girl,1,P,C,,0,
367,15,1,1.201388889,19.40611111,punch,AC,1,The cowboy punches the swimmer.,The man is punched on him the stomach,0,A,C,,2,
368,15,1,6.773055556,6.975555556,scold,PC,1,The doctor is scolded by the professor.,The policeman scolded the boxer,1,P,C,,0,
369,15,1,9.491111111,12.80111111,chase,AC,1,The nun chases the sailor.,The policeman chases the thief,1,A,C,,0,
370,15,1,2.931111111,11.64638889,chase,PC,0,The swimmer is chased by the nun.,The lady is chased the doctor,0,P,C,,1,
371,15,0,2.851388889,11.36638889,scold,AC,0,The waitress scolds the boxer.,The policemen scolds the ballerina,1,A,C,,0,
372,15,1,2.981388889,26.48388889,chase,PC,1,The monk is chased by the policeman.,The thief  is chased by the robber,0,P,C,,0,
373,15,1,0.7655555556,4.562222222,pull,AI,1,The boxer pull the soldier.,The robber pull the ballerina,1,A,I,,1,
374,15,1,4.086388889,4.752222222,follow,PC,1,The ballerina is followed by the pirate.,The nun is followed by the soldier,0,P,C,,0,
375,15,1,2.870555556,4.634722222,tickle,AI,0,The soldier tickle the boxer.,The lady tickle the doctor,1,A,I,,1,
376,15,1,1.802222222,3.894722222,follow,PC,0,The ballerina is followed by the pirate.,The nun is followed by the boxer,0,P,C,,0,
377,15,1,0.7466666667,4.834444444,follow,AC,0,The nun follows the cowboy.,The pirate is followed by the doctor,0,A,C,,0,
378,15,1,1.106944444,7.636944444,shoot,PI,1,The ballerina is shooted by the artist.,The swimmer is shootted by the chef,0,P,I,,1,
379,15,1,0.8077777778,5.686388889,follow,AC,1,The nun follows the doctor.,The pirate follows the policeman,1,A,C,,0,
380,15,1,0.6847222222,4.843888889,punch,PC,0,The policeman is punched by the artist.,The cow boy punches the ballerina,1,P,C,,0,
381,15,1,0.9125,5.406111111,chase,AC,0,The policeman chases the robber.,The swimmer chased by the policeman,0,A,C,,1,
382,15,1,0.9280555556,3.978888889,push,PI,0,The monk is pushen by the policeman.,The cowboy pushes the ballerina,1,P,I,,0,
383,15,0,1.089722222,3.377222222,shoot,AI,0,The actress shoot the robber.,The chef shoots the boxer,1,A,I,,0,
384,15,1,0.8805555556,5.797222222,kiss,PC,1,The boxer is kissed by the artist.,The nun is kissing the ballerina's lips,1,P,C,,0,
385,15,1,1.045277778,4.152222222,push,AI,1,The chef push the clown.,The cowboy pushes the swimmer,1,A,I,,0,
386,15,1,1.1175,3.636944444,tickle,PI,1,The robber is ticklen by the soldier.,The lady tickling the monk,1,P,I,,1,
387,15,1,0.7902777778,3.814722222,slap,AC,1,The cowboy slaps the professor.,The policeman slaps the swimmer,1,A,C,,0,
388,15,1,7.0825,4.631944444,slap,PC,1,The clown is slapped by the policeman.,The cowboy slaps the boy,1,P,C,,0,
389,15,0,4.099444444,8.948055556,touch,AI,0,The waitress touch the professor.,The captain touch the swimmer,1,A,I,,1,
390,15,1,0.8416666667,4.513055556,touch,PI,1,The doctor is touchen by the waitress.,The clown is touched by the captain,0,P,I,,0,
391,15,1,1.039722222,4.989722222,kick,AI,1,The policeman kick the boxer.,The clown is kicked by the waitress,0,A,I,,0,
392,15,0,7.905833333,7.747777778,pull,PI,0,The waitress is pullen by the pirate.,The clown is pulled by the boxer,0,P,I,,0,
393,15,1,0.8013888889,4.991111111,slap,AC,0,The cowboy slaps the ballerina.,The policeman slaps the boxer,1,A,C,,0,
394,15,1,0.8486111111,4.146388889,scold,PC,0,The monk is scolded by the swimmer.,The soldier is scolded by the professor,0,P,C,,0,
395,15,1,0.8847222222,9.703611111,scold,AC,1,The policeman scolds the doctor.,The professor scolds the captain,1,A,C,,0,
396,15,1,0.7013888889,4.346111111,kiss,PC,0,The monk is kissed by the swimmer.,The artist kissed the clown,1,P,C,,0,
397,16,0,0.8952777778,3.2375,touch,AI,0,The waitress touch the professor.,The sailor touches the swimmer,1,A,I,,0,
398,16,0,1.003888889,2.436111111,touch,PI,1,The doctor is touchen by the waitress.,The sailor is touching the clown,1,P,I,,0,
399,16,1,1.339722222,2.175,pull,AI,1,The boxer pull the soldier.,The pirate pulls the ballerina,1,A,I,,0,
400,16,1,0.6361111111,2.614722222,pull,PI,0,The waitress is pullen by the pirate.,The boxer is pulling the clown,1,P,I,,0,
401,16,1,0.6963888889,2.105277778,tickle,AI,0,The soldier tickle the boxer.,The waitress tickles the doctor,1,A,I,,0,
402,16,1,0.5925,2.721666667,slap,PC,1,The clown is slapped by the policeman.,The cowboy slapped the sailor,1,P,C,,0,
403,16,1,0.5522222222,2.563055556,follow,AC,1,The nun follows the doctor.,The pirate followed the sailor,1,A,C,,0,
404,16,1,0.6113888889,2.433611111,punch,PC,1,The ballerina is punched by the artist.,the cowboy punches the doctor,1,P,C,,0,
405,16,1,0.7316666667,2.105277778,kiss,AC,1,The artist kisses the ballerina.,The nun kissed the boxer,1,A,C,,0,
406,16,1,0.84,3.103333333,slap,PC,0,The nurse is slapped by  the policeman.,The cowboy slapped the ballerina,1,P,C,,0,
407,16,1,0.6716666667,2.658611111,slap,AC,0,The cowboy slaps the ballerina.,The boxer was slapped by the policeman,0,A,C,,0,
408,16,0,0.7069444444,3.0975,shoot,PI,1,The ballerina is shooted by the artist.,The cook shoots the swimmer,1,P,I,,0,
409,16,1,0.5213888889,2.463888889,kiss,AC,0,The pirate kisses the clown.,the artist kissed the soldier,1,A,C,,0,
410,16,1,0.415,2.508888889,punch,PC,0,The policeman is punched by the artist.,the cowboy punched the ballerina,1,P,C,,0,
411,16,1,0.4880555556,3.196388889,scold,AC,1,The policeman scolds the doctor.,The professor scolded the sailor,1,A,C,,0,
412,16,1,0.7527777778,3.465555556,push,PI,0,The monk is pushen by the policeman.,The ballerina was pushed by the cowboy,0,P,I,,2,
413,16,1,0.5011111111,2.536111111,scold,AC,0,The waitress scolds the boxer.,The policeman scolds the ballerina,1,A,C,,0,
414,16,1,0.6055555556,2.131944444,follow,PC,0,The ballerina is followed by the pirate.,The nun followed the boxer,1,P,C,,0,
415,16,0,0.9044444444,2.411666667,push,AI,1,The chef push the clown.,The cowboy pushed the swimmer,1,A,I,,0,
416,16,1,0.6055555556,2.288333333,chase,PC,0,The swimmer is chased by the nun.,The doctor is chased by the waitress,0,P,C,,0,
417,16,1,0.5447222222,2.316111111,punch,AC,0,The cowboy punches the nun.,The artist punched the monk,1,A,C,,0,
418,16,1,0.5422222222,2.346111111,chase,PC,1,The monk is chased by the policeman.,The robber is chased by the pirate,0,P,C,,0,
419,16,0,0.6583333333,3.037222222,kick,AI,1,The policeman kick the boxer.,The waitress kicked the clown,1,A,I,,0,
420,16,1,0.4247222222,2.300555556,kiss,PC,1,The boxer is kissed by the artist.,The nun kisses the ballerina,1,P,C,,0,
421,16,1,0.8016666667,2.405,shoot,AI,0,The actress shoot the robber.,The chef shoots the boxer,1,A,I,,0,
422,16,1,0.5147222222,2.221111111,kick,PI,0,The clown is kicken by the nun.,The robber is kicked by the waitress,0,P,I,,0,
423,16,1,0.4844444444,2.4675,follow,AC,0,The nun follows the cowboy.,The pirate follows the doctor,1,A,C,,0,
424,16,1,0.5144444444,2.369444444,scold,PC,0,The monk is scolded by the swimmer.,The soldier is scolded by the professor,0,P,C,,0,
425,16,1,0.3902777778,2.116944444,punch,AC,1,The cowboy punches the swimmer.,The artist punches the clown,1,A,C,,0,
426,16,1,0.39,2.205833333,kiss,PC,0,The monk is kissed by the swimmer.,The clown is kissed by the artist,0,P,C,,0,
427,16,1,0.5047222222,2.787222222,slap,AC,1,The cowboy slaps the professor.,The policeman slaps the swimmer,1,A,C,,0,
428,16,1,2.400833333,2.496944444,scold,PC,1,The doctor is scolded by the professor.,The policeman scolds the boxer,1,P,C,,0,
429,16,1,0.4197222222,2.132777778,chase,AC,1,The nun chases the sailor.,The policeman chases the robber,1,A,C,,0,
430,16,0,0.5372222222,2.269722222,tickle,PI,1,The robber is ticklen by the soldier.,The waitress tickles the monk,1,P,I,,0,
431,16,1,0.4416666667,2.449444444,chase,AC,0,The policeman chases the robber.,The policeman chases the swimmer,1,A,C,,0,
432,16,1,0.5372222222,2.626944444,follow,PC,1,The ballerina is followed by the pirate.,The nun followed the soldier,1,P,C,,0,
433,17,1,1.370555556,3.868888889,kick,AI,1,The policeman kick the boxer.,the maid kicked the clown,1,A,I,,0,
434,17,1,0.7522222222,3.864444444,scold,PC,0,The monk is scolded by the swimmer.,the soldier was scolded by the teacher,0,P,C,,0,
435,17,1,0.6913888889,2.075277778,slap,AC,0,The cowboy slaps the ballerina.,the police slapped the boxer,1,A,C,,0,
436,17,1,0.5863888889,2.300277778,follow,PC,0,The ballerina is followed by the pirate.,the nun followed the boxer,1,P,C,,0,
437,17,1,0.655,1.929444444,chase,AC,0,The policeman chases the robber.,the police chases the swimmer,1,A,C,,0,
438,17,1,0.6813888889,1.317777778,kick,PI,0,The clown is kicken by the nun.,the maid kicked the robber,1,P,I,,0,
439,17,1,0.8636111111,1.648611111,push,AI,1,The chef push the clown.,the cowbow pushed the swimmer,1,A,I,,0,
440,17,1,1.268611111,1.791666667,push,PI,0,The monk is pushen by the policeman.,the cowbow pushed the ballerina,1,P,I,,0,
441,17,1,0.8663888889,1.225833333,kiss,AC,1,The artist kisses the ballerina.,the nun kisses the boxer,1,A,C,,0,
442,17,1,0.6661111111,1.564444444,chase,PC,1,The monk is chased by the policeman.,the pirate chases the robber,1,P,C,,0,
443,17,1,0.6275,1.565,tickle,AI,0,The soldier tickle the boxer.,the maid tickles the doctor,1,A,I,,0,
444,17,0,0.7294444444,2.038055556,shoot,PI,1,The ballerina is shooted by the artist.,the chef shoots the swimmer,1,P,I,,0,
445,17,1,0.6191666667,1.200833333,punch,AC,1,The cowboy punches the swimmer.,the artist punches the clown,1,A,C,,0,
446,17,1,1.171388889,1.2625,kiss,PC,1,The boxer is kissed by the artist.,the nun kisses the ballerina,1,P,C,,0,
447,17,1,0.7894444444,2.250555556,scold,AC,0,The waitress scolds the boxer.,the police scolds the ballerina,1,A,C,,0,
448,17,1,0.5577777778,1.292777778,punch,PC,1,The ballerina is punched by the artist.,the cowboy punches the doctor,1,P,C,,0,
449,17,1,0.4944444444,1.409444444,scold,AC,1,The policeman scolds the doctor.,the teacher scolds the sailor,1,A,C,,0,
450,17,1,0.4841666667,2.410833333,punch,PC,0,The policeman is punched by the artist.,the cowboy punches the ballerina,1,P,C,,0,
451,17,1,0.655,1.376111111,follow,AC,1,The nun follows the doctor.,the pirate follows the sailor,1,A,C,,0,
452,17,1,0.5047222222,1.268055556,chase,PC,0,The swimmer is chased by the nun.,the maid chases the doctor,1,P,C,,0,
453,17,1,0.5566666667,1.165833333,shoot,AI,0,The actress shoot the robber.,the chef shoots the boxer,1,A,I,,0,
454,17,1,0.5772222222,1.568888889,follow,PC,1,The ballerina is followed by the pirate.,the nun follows the soldier,1,P,C,,0,
455,17,1,0.9633333333,1.608333333,slap,AC,1,The cowboy slaps the professor.,the police slapped the swimmer,1,A,C,,0,
456,17,1,0.4275,1.140277778,pull,PI,0,The waitress is pullen by the pirate.,the boxer pulls the clown,1,P,I,,0,
457,17,1,1.105555556,1.355833333,touch,AI,0,The waitress touch the professor.,the sailor touched the swimmer,1,A,I,,0,
458,17,1,0.8261111111,2.656666667,slap,PC,1,The clown is slapped by the policeman.,the cowboy slapped the sailor,1,P,C,,0,
459,17,1,2.099722222,1.2875,chase,AC,1,The nun chases the sailor.,the police chases the robber,1,A,C,,0,
460,17,1,0.2930555556,1.476388889,slap,PC,0,The nurse is slapped by  the policeman.,the cowboy slapped the dancer,1,P,C,,0,
461,17,1,0.3997222222,2.390555556,kiss,AC,0,The pirate kisses the clown.,the artist kisses the soldier,1,A,C,,0,
462,17,0,0.9113888889,1.177777778,touch,PI,1,The doctor is touchen by the waitress.,the sailor touches the clown,1,P,I,,0,
463,17,1,0.3952777778,1.623055556,follow,AC,0,The nun follows the cowboy.,the pirate follows the doctor,1,A,C,,0,
464,17,1,0.5075,1.7775,scold,PC,1,The doctor is scolded by the professor.,the police scolded the boxer,1,P,C,,0,
465,17,1,0.6277777778,1.918333333,punch,AC,0,The cowboy punches the nun.,the artist punches the monk,1,A,C,,0,
466,17,0,0.6055555556,1.413888889,tickle,PI,1,The robber is ticklen by the soldier.,the waitress tickles the monk,1,P,I,,0,
467,17,1,0.6616666667,1.3575,pull,AI,1,The boxer pull the soldier.,the pirate pulls the ballerina,1,A,I,,0,
468,17,1,0.5836111111,2.79,kiss,PC,0,The monk is kissed by the swimmer.,the artist kisses the clown,1,P,C,,0,
469,18,1,1.8525,13.58083333,push,AI,1,The chef push the clown.,The man PUSH the poor guy,1,A,I,,1,
470,18,1,5.681666667,11.23305556,follow,PC,1,The ballerina is followed by the pirate.,the soldier is followed by the Father,0,P,C,,0,
471,18,0,2.226388889,23.80944444,tickle,AI,0,The soldier tickle the boxer.,The lady tickle the Doctor,1,A,I,,1,
472,18,1,4.495,17.88472222,kiss,PC,1,The boxer is kissed by the artist.,The ballerina is kissed by the mother,0,P,C,,0,
473,18,1,3.186111111,14.88666667,pull,AI,1,The boxer pull the soldier.,The pirate pull the ballerina,1,A,I,,1,
474,18,0,2.685555556,10.04416667,push,PI,0,The monk is pushen by the policeman.,The pirate push the ballerina,1,P,I,,1,
475,18,1,3.010555556,10.48027778,chase,AC,1,The nun chases the sailor.,The policeman chases the thief,1,A,C,,0,
476,18,0,4.496111111,18.00444444,scold,PC,0,The monk is scolded by the swimmer.,The soldier is scolded by the teacher,0,P,C,,0,
477,18,0,6.450833333,16.08138889,slap,AC,0,The cowboy slaps the ballerina.,The swimmer slap the boxer,1,A,C,,1,
478,18,1,4.620277778,20.645,punch,PC,0,The policeman is punched by the artist.,The cowboy punch the ballerina,1,P,C,,1,
479,18,1,6.608611111,20.32583333,follow,AC,0,The nun follows the cowboy.,The pirate follows the Doctor,1,A,C,,0,
480,18,1,8.611111111,15.52638889,shoot,PI,1,The ballerina is shooted by the artist.,The cowboy shooted  by the chef,0,P,I,,1,
481,18,1,4.1325,8.391111111,shoot,AI,0,The actress shoot the robber.,The chef shoot the boxer,1,A,I,,1,
482,18,1,3.019444444,11.35111111,touch,PI,1,The doctor is touchen by the waitress.,a mad man touched by the policeman,0,P,I,,1,
483,18,1,2.537222222,14.81055556,scold,AC,0,The waitress scolds the boxer.,a ballerina scold by the soldier,0,A,C,,1,
484,18,1,6.548611111,6.833611111,pull,PI,0,The waitress is pullen by the pirate.,a mad man pulled by the boxer,0,P,I,,1,
485,18,0,3.686944444,9.063333333,scold,AC,1,The policeman scolds the doctor.,a police man scold by the teacher,0,A,C,,1,
486,18,1,2.827777778,18.10611111,tickle,PI,1,The robber is ticklen by the soldier.,a monk is tickle by the waitress,0,P,I,,1,
487,18,1,3.212777778,12.20888889,kiss,AC,1,The artist kisses the ballerina.,the nun kisses the boxer,1,A,C,,0,
488,18,1,2.388888889,7.663611111,kiss,PC,0,The monk is kissed by the swimmer.,a mad man is kissed by the artist,0,P,C,,0,
489,18,1,3.707777778,6.483611111,punch,AC,0,The cowboy punches the nun.,The artist punches the monk,1,A,C,,0,
490,18,1,2.847222222,6.064166667,scold,PC,1,The doctor is scolded by the professor.,The boxer scold by the soldier,0,P,C,,1,
491,18,1,1.196111111,10.71,chase,AC,0,The policeman chases the robber.,The soldier chase the swimmer,1,A,C,,1,
492,18,1,2.217222222,10.25083333,chase,PC,1,The monk is chased by the policeman.,The robber is chased by the pirate,0,P,C,,0,
493,18,1,0.9225,11.20277778,slap,AC,1,The cowboy slaps the professor.,The soldier slaps the swimmer,1,A,C,,0,
494,18,1,7.785277778,7.384722222,slap,PC,1,The clown is slapped by the policeman.,The policeman is slapped by the cowboy,0,P,C,,0,
495,18,1,1.968333333,4.872777778,kiss,AC,0,The pirate kisses the clown.,The soldier is kissed by the artist,0,A,C,,0,
496,18,1,1.251666667,6.091388889,follow,PC,0,The ballerina is followed by the pirate.,The boxer followed by the nun,0,P,C,,1,
497,18,1,1.268888889,4.015555556,touch,AI,0,The waitress touch the professor.,The policeman touched the swimmer,1,A,I,,0,
498,18,1,2.029722222,5.9175,slap,PC,0,The nurse is slapped by  the policeman.,The ballerina is slapped by the cowboy,0,P,C,,0,
499,18,1,1.1075,5.151666667,kick,AI,1,The policeman kick the boxer.,The waitress kick the clown,1,A,I,,1,
500,18,1,1.155833333,5.618055556,chase,PC,0,The swimmer is chased by the nun.,The doctor is chased by the waitress,0,P,C,,0,
501,18,1,0.9516666667,3.502222222,punch,AC,1,The cowboy punches the swimmer.,The artist punch the clown,1,A,C,,1,
502,18,1,1.724444444,7.2925,punch,PC,1,The ballerina is punched by the artist.,The doctor punched by the cowboy,1,P,C,,0,
503,18,1,0.8363888889,5.926666667,follow,AC,1,The nun follows the doctor.,the pirate follow the policeman,1,A,C,,0,
504,18,1,1.1525,5.836666667,kick,PI,0,The clown is kicken by the nun.,The robber is kicked by the waitress,0,P,I,,0,
505,20,0,2.15,4.933611111,chase,AC,0,The policeman chases the robber.,the man is chase by the policeman,0,A,C,,1,
506,20,0,0.4219444444,4.791388889,slap,PC,0,The nurse is slapped by  the policeman.,the woman is slap by the man,0,P,C,,1,
507,20,0,0.9644444444,5.153055556,follow,AC,0,The nun follows the cowboy.,the  doctor is follow by the man,0,A,C,,1,
508,20,0,2.638333333,5.614166667,punch,PC,0,The policeman is punched by the artist.,the woman is punch by the man,0,P,C,,1,
509,20,1,1.268888889,5.19,chase,AC,1,The nun chases the sailor.,the policeman chase the robber,1,A,C,,1,
510,20,1,1.400833333,11.01861111,punch,PC,1,The ballerina is punched by the artist.,the cowboy punch the Dr.,1,P,C,,1,
511,20,0,2.446388889,5.735,shoot,AI,0,The actress shoot the robber.,the bakery shoot the boxer,1,A,I,,1,
512,20,1,1.033055556,5.649166667,scold,PC,1,The doctor is scolded by the professor.,the man is scold by the policeman,0,P,C,,0,
513,20,0,1.858055556,6.095555556,kiss,AC,0,The pirate kisses the clown.,the man is kiss by the woman,0,A,C,,1,
514,20,1,1.698611111,5.585,kiss,PC,1,The boxer is kissed by the artist.,the ballarira is kiss by the nun,0,P,C,,1,
515,20,1,1.115277778,11.80944444,slap,AC,1,The cowboy slaps the professor.,the swimmer is slap by the policemen,0,A,C,,1,
516,20,1,2.025555556,6.830277778,kiss,PC,0,The monk is kissed by the swimmer.,the man is kiss by the woman,0,P,C,,1,
517,20,1,1.602222222,8.17,punch,AC,1,The cowboy punches the swimmer.,the dummy is punch by the man,0,A,C,,1,
518,20,1,1.010555556,6.416666667,shoot,PI,1,The ballerina is shooted by the artist.,the swimmer is shoot by the baker,0,P,I,,1,
519,20,1,0.8847222222,6.189444444,follow,AC,1,The nun follows the doctor.,the cowboy follow the sailor,1,A,C,,0,
520,20,1,2.362222222,6.111388889,chase,PC,0,The swimmer is chased by the nun.,the doctor is chase by the cook,0,P,C,,1,
521,20,1,1.324444444,6.070277778,pull,AI,1,The boxer pull the soldier.,the cowboy pull the ballarira,1,A,I,,1,
522,20,1,1.814722222,10.2325,push,PI,0,The monk is pushen by the policeman.,the ballariaria is push  by the cowboy,0,P,I,,1,
523,20,1,1.453888889,8.319722222,punch,AC,0,The cowboy punches the nun.,the monk is punch by the man,0,A,C,,1,
524,20,1,0.9955555556,15.18583333,scold,PC,0,The monk is scolded by the swimmer.,the man is scold by the priest,0,P,C,,0,
525,20,1,3.170277778,6.180277778,slap,AC,0,The cowboy slaps the ballerina.,the boxer is slap by the clown,0,A,C,,1,
526,20,1,3.046388889,7.583611111,slap,PC,1,The clown is slapped by the policeman.,the cowboy is slap by the sailor,0,P,C,,1,
527,20,1,1.799166667,5.691944444,scold,AC,0,The waitress scolds the boxer.,the baliaria is scold by the policemen,0,A,C,,1,
528,20,1,1.475277778,12.26861111,kick,PI,0,The clown is kicken by the nun.,the robber is kick by the cook,0,P,I,,1,
529,20,1,3.511388889,6.867222222,touch,AI,0,The waitress touch the professor.,the sailor touch the swimmer,1,A,I,,1,
530,20,1,1.988888889,8.980555556,follow,PC,1,The ballerina is followed by the pirate.,the policemen is follow by the nun,0,P,C,,1,
531,20,1,2.451111111,8.579722222,scold,AC,1,The policeman scolds the doctor.,the sailor is scold by the priest,0,A,C,,1,
532,20,1,3.3875,6.517222222,pull,PI,0,The waitress is pullen by the pirate.,the clown is puled by the boxer,0,P,I,,0,
533,20,1,2.450277778,9.634722222,tickle,AI,0,The soldier tickle the boxer.,the doctor is tickle by the nurse,0,A,I,,1,
534,20,1,1.760277778,6.388333333,touch,PI,1,The doctor is touchen by the waitress.,the clow is touch by the sailor,0,P,I,,1,
535,20,1,1.849722222,6.091666667,push,AI,1,The chef push the clown.,the cowboy push the man,1,A,I,,1,
536,20,1,1.510277778,6.506388889,tickle,PI,1,The robber is ticklen by the soldier.,the monk is tickle by the woman,1,P,I,,1,
537,21,0,4.248333333,2.916666667,tickle,AI,0,The soldier tickle the boxer.,maid tickle the doctor,1,A,I,,1,
538,21,0,1.357222222,3.576111111,shoot,PI,1,The ballerina is shooted by the artist.,the cook shoots the soldier,1,P,I,,0,
539,21,1,2.749722222,7.036388889,chase,AC,0,The policeman chases the robber.,the policeman give chase to the swimmer,,A,C,,2,not using verb chase
540,21,1,1.696388889,9.035,chase,PC,1,The monk is chased by the policeman.,the pirate chased the robber,1,P,C,,0,
541,21,1,1.065,4.146944444,scold,AC,0,The waitress scolds the boxer.,the officer scolds the dancer,1,A,C,,0,
542,21,0,2.631666667,3.795833333,tickle,PI,1,The robber is ticklen by the soldier.,the maid tickles the monk,1,P,I,,0,
543,21,1,1.001388889,5.2475,slap,AC,1,The cowboy slaps the professor.,swimmer slapped by officer,0,A,C,,1,
544,21,1,0.7230555556,4.8175,pull,PI,0,The waitress is pullen by the pirate.,boxer pulling the clown,1,P,I,,1,
545,21,1,0.9766666667,4.777222222,touch,AI,0,The waitress touch the professor.,sailor touches the swimmer,1,A,I,,2,
546,21,1,1.431388889,5.412777778,push,PI,0,The monk is pushen by the policeman.,cowboy pushed the dancer,1,P,I,,2,
547,21,1,1.25,3.697777778,push,AI,1,The chef push the clown.,cowboy push the swimmer,1,A,I,,1,
548,21,0,1.278888889,5.397222222,touch,PI,1,The doctor is touchen by the waitress.,sailor touch the clown,1,P,I,,1,
549,21,1,0.7036111111,4.265833333,scold,AC,1,The policeman scolds the doctor.,scholar scolds sailor,1,A,C,,2,
550,21,1,0.8872222222,5.980833333,punch,PC,0,The policeman is punched by the artist.,cowboy punched dancer,1,P,C,,2,
551,21,1,0.9902777778,3.768055556,follow,AC,1,The nun follows the doctor.,pirate follows sailor,1,A,C,,2,
552,21,1,0.8255555556,3.733055556,kiss,PC,0,The monk is kissed by the swimmer.,artist kissing clown,1,P,C,,1,
553,21,1,0.7158333333,4.8225,pull,AI,1,The boxer pull the soldier.,dancer pulled by pirate,0,A,I,,1,
554,21,1,0.8461111111,4.708888889,chase,PC,0,The swimmer is chased by the nun.,doctor chased by waitress,0,P,C,,1,
555,21,1,1.095555556,5.101111111,kick,AI,1,The policeman kick the boxer.,waitress kicked clown,1,A,I,,2,
556,21,1,2.215555556,3.092222222,kiss,PC,1,The boxer is kissed by the artist.,nun kissing dancer,1,P,C,,1,
557,21,1,0.8783333333,5.41,punch,AC,0,The cowboy punches the nun.,artist punched monk,1,A,C,,2,
558,21,1,1.867222222,7.241666667,slap,PC,1,The clown is slapped by the policeman.,cowboy slaps sailor,1,P,C,,2,
559,21,1,1.647777778,6.769166667,shoot,AI,0,The actress shoot the robber.,chef shooting boxer,1,A,I,,1,
560,21,1,1.039722222,5.0975,scold,PC,1,The doctor is scolded by the professor.,officer scolds the boxer,1,P,C,,2,
561,21,1,0.8127777778,5.103055556,kiss,AC,1,The artist kisses the ballerina.,nun kissed the boxer,1,A,C,,2,
562,21,1,1.013611111,5.384166667,kick,PI,0,The clown is kicken by the nun.,waitress kicks the robber,1,P,I,,2,
563,21,1,1.014722222,5.136666667,slap,AC,0,The cowboy slaps the ballerina.,officer slaps the boxer,1,A,C,,2,
564,21,1,0.8783333333,4.471666667,slap,PC,0,The nurse is slapped by  the policeman.,cowboy slaps ballerina,1,P,C,,2,
565,21,1,1.1025,4.507222222,kiss,AC,0,The pirate kisses the clown.,artist kisses the soldier,1,A,C,,2,
566,21,1,1.548888889,3.856666667,scold,PC,0,The monk is scolded by the swimmer.,scholar scolds soldier,1,P,C,,2,
567,21,1,0.7569444444,5.440277778,punch,AC,1,The cowboy punches the swimmer.,artists punched clown,1,A,C,,2,
568,21,1,0.7313888889,5.475833333,punch,PC,1,The ballerina is punched by the artist.,cowboy punches doctor,1,P,C,,2,
569,21,1,0.8619444444,6.180277778,chase,AC,1,The nun chases the sailor.,officer chase behind theif,1,A,C,,1,
570,21,1,0.8258333333,5.390555556,follow,PC,0,The ballerina is followed by the pirate.,nun follows boxer,1,P,C,,2,
571,21,1,0.8144444444,4.984722222,follow,AC,0,The nun follows the cowboy.,pirate follows doctor,1,A,C,,2,
572,21,1,0.8905555556,3.963333333,follow,PC,1,The ballerina is followed by the pirate.,nun follows soldier,1,P,C,,2,
573,22,1,1.426111111,3.825833333,kick,AI,1,The policeman kick the boxer.,The waitress kicked the clown.,1,A,I,,0,
574,22,0,1.144722222,4.733888889,slap,PC,0,The nurse is slapped by  the policeman.,The cowboy slapped the ballerina.,1,P,C,,0,
575,22,1,0.7547222222,8.085,follow,AC,1,The nun follows the doctor.,The pirate is following the sailor.,1,A,C,,0,
576,22,1,3.143055556,5.671666667,shoot,PI,1,The ballerina is shooted by the artist.,The cook shoots the swimmer.,1,P,I,,0,
577,22,1,1.397777778,4.61,pull,AI,1,The boxer pull the soldier.,The pirate is pulling the ballerina.,1,A,I,,0,
578,22,1,0.5527777778,6.248611111,punch,PC,1,The ballerina is punched by the artist.,The cowboy punched the doctor.,1,P,C,,0,
579,22,1,1.335833333,4.798333333,punch,AC,1,The cowboy punches the swimmer.,The artist punched the clown.,1,A,C,,0,
580,22,1,0.6661111111,8.456111111,push,PI,0,The monk is pushen by the policeman.,The cowboy is pushing the ballerina.,1,P,I,,0,
581,22,1,1.866388889,4.481944444,kiss,AC,1,The artist kisses the ballerina.,The nun is kissing the boxer.,1,A,C,,0,
582,22,1,1.118055556,4.841944444,scold,PC,1,The doctor is scolded by the professor.,The policeman was scolding the boxer.,1,P,C,,0,
583,22,1,2.571111111,5.018611111,punch,AC,0,The cowboy punches the nun.,The artist punched the monk.,1,A,C,,0,
584,22,1,2.466111111,4.706944444,kiss,PC,0,The monk is kissed by the swimmer.,The artist is kissing the clown.,1,P,C,,0,
585,22,1,0.7313888889,4.306111111,shoot,AI,0,The actress shoot the robber.,The chef is shooting the boxer.,1,A,I,,0,
586,22,1,1.014166667,6.074722222,kiss,PC,1,The boxer is kissed by the artist.,The nun is trying to kiss the ballerina.,1,P,C,,0,
587,22,1,0.8733333333,4.728055556,touch,AI,0,The waitress touch the professor.,The sailor is touching the swimmer.,1,A,I,,0,
588,22,0,0.8044444444,9.795,tickle,PI,1,The robber is ticklen by the soldier.,The waitress is tickling the priest.,1,P,I,,0,
589,22,1,0.7844444444,6.923055556,tickle,AI,0,The soldier tickle the boxer.,The waitress is tickling the doctor.,1,A,I,,0,
590,22,1,0.89,5.118333333,follow,PC,1,The ballerina is followed by the pirate.,The soldier is followed by the nun.,0,P,C,,0,
591,22,1,1.022777778,7.601388889,kiss,AC,0,The pirate kisses the clown.,The artist kisses the soldier.,1,A,C,,0,
592,22,1,1.001666667,5.870555556,scold,PC,0,The monk is scolded by the swimmer.,The soldier is scolded by the professor.,0,P,C,,0,
593,22,1,0.9683333333,10.82166667,scold,AC,0,The waitress scolds the boxer.,The policeman scolds the ballerina.,1,A,C,,0,
594,22,1,1.263333333,15.99777778,follow,PC,0,The ballerina is followed by the pirate.,The boxer is followed by the nun.,0,P,C,,0,
595,22,1,0.8786111111,10.43638889,chase,AC,1,The nun chases the sailor.,The policeman chases the robber.,1,A,C,,0,
596,22,1,1.132222222,10.23083333,kick,PI,0,The clown is kicken by the nun.,The waitress kicked the robber.,1,P,I,,0,
597,22,1,1.243055556,6.473333333,scold,AC,1,The policeman scolds the doctor.,The professor scolds the sailor.,1,A,C,,0,
598,22,1,0.6044444444,5.824722222,pull,PI,0,The waitress is pullen by the pirate.,The boxer pulls the clown.,1,P,I,,0,
599,22,1,1.457777778,6.987777778,slap,AC,0,The cowboy slaps the ballerina.,The policeman slapped the boxer.,1,A,C,,0,
600,22,1,0.8283333333,8.162777778,chase,PC,0,The swimmer is chased by the nun.,The waitress chases the doctor.,1,P,C,,0,
601,22,1,0.8922222222,11.29111111,chase,AC,0,The policeman chases the robber.,The policeman chases the swimmer.,1,A,C,,0,
602,22,1,0.6847222222,5.669444444,chase,PC,1,The monk is chased by the policeman.,The pirate chases the robber.,1,P,C,,0,
603,22,1,0.7905555556,5.027222222,follow,AC,0,The nun follows the cowboy.,The pirate follows the doctor.,1,A,C,,0,
604,22,1,2.100555556,5.3525,slap,PC,1,The clown is slapped by the policeman.,The sailor is slapped by the cowboy.,0,P,C,,0,
605,22,1,3.040833333,5.401666667,push,AI,1,The chef push the clown.,The cowboy pushed the swimmer.,1,A,I,,0,
606,22,1,0.7747222222,6.541666667,punch,PC,0,The policeman is punched by the artist.,The cowboy punched the ballerina.,1,P,C,,0,
607,22,1,1.390277778,7.521666667,slap,AC,1,The cowboy slaps the professor.,The policeman slapped the swimmer.,1,A,C,,0,
608,22,0,1.093055556,4.421666667,touch,PI,1,The doctor is touchen by the waitress.,The sailor touched the clown.,1,P,I,,0,
609,24,1,0.4102777778,2.693333333,kiss,AC,1,The artist kisses the ballerina.,Nun kisses the boxer.,1,A,C,,2,
610,24,0,0.965,2.762777778,slap,PC,0,The nurse is slapped by  the policeman.,Cowboys slaps the ballerina.,1,P,C,,2,
611,24,1,0.3097222222,2.979166667,pull,AI,1,The boxer pull the soldier.,Pirate pulls the ballerina.,1,A,I,,2,
612,24,1,0.2308333333,3.417222222,tickle,PI,1,The robber is ticklen by the soldier.,The maid tickles the nurse.,1,P,I,,0,
613,24,1,1.374444444,2.581388889,punch,AC,1,The cowboy punches the swimmer.,Artist punches the clown.,1,A,C,,2,
614,24,1,0.5083333333,2.150277778,kiss,PC,1,The boxer is kissed by the artist.,Nun kisses the ballerina.,1,P,C,,2,
615,24,1,1.357777778,2.006111111,scold,AC,0,The waitress scolds the boxer.,Cop scolds the ballerina.,1,A,C,,2,
616,24,0,0.2983333333,3.013333333,pull,PI,0,The waitress is pullen by the pirate.,Clown is pulled by the boxer.,0,P,I,,2,
617,24,1,5.625833333,2.450277778,follow,AC,1,The nun follows the doctor.,Pirate follows the sailor.,1,A,C,,2,
618,24,1,0.1486111111,1.961666667,touch,PI,1,The doctor is touchen by the waitress.,Sailor touches the clown.,1,P,I,,2,
619,24,1,0.5522222222,2.195555556,push,AI,1,The chef push the clown.,Cowboy pushed the swimmer.,1,A,I,,2,
620,24,1,1.305,2.180277778,follow,PC,0,The ballerina is followed by the pirate.,Nun follows the boxer.,1,P,C,,2,
621,24,1,0.5519444444,2.533055556,scold,AC,1,The policeman scolds the doctor.,The professor scolds the sailor.,1,A,C,,0,
622,24,1,0.3641666667,2.458055556,chase,PC,1,The monk is chased by the policeman.,The pirate chases the robber.,1,P,C,,0,
623,24,1,0.8475,2.461666667,follow,AC,0,The nun follows the cowboy.,The pirate follows the doctor.,1,A,C,,0,
624,24,1,0.9469444444,2.527222222,chase,PC,0,The swimmer is chased by the nun.,The waitress chases the doctor.,1,P,C,,0,
625,24,1,0.4761111111,2.946944444,chase,AC,1,The nun chases the sailor.,The policeman chases the robber.,1,A,C,,0,
626,24,1,0.7319444444,3.344444444,kick,PI,0,The clown is kicken by the nun.,The robber is kicked by the maid.,0,P,I,,0,
627,24,1,0.4644444444,2.031111111,shoot,AI,0,The actress shoot the robber.,The chef shoots the boxer.,1,A,I,,0,
628,24,1,0.6941666667,2.53,slap,PC,1,The clown is slapped by the policeman.,The sailor is slapped by the clown.,0,P,C,,0,
629,24,1,0.4713888889,3.976111111,punch,AC,0,The cowboy punches the nun.,The nurse is punched by the artist.,0,A,C,,0,
630,24,1,0.5994444444,3.023611111,punch,PC,0,The policeman is punched by the artist.,The ballerina is punched by the cowboy.,0,P,C,,0,
631,24,1,0.485,1.963888889,touch,AI,0,The waitress touch the professor.,The sailor touched the swimmer.,1,A,I,,0,
632,24,0,0.9658333333,2.168888889,shoot,PI,1,The ballerina is shooted by the artist.,The chef shot the swimmer.,1,P,I,,0,
633,24,1,0.5425,2.8925,chase,AC,0,The policeman chases the robber.,The policeman chased the swimmer.,1,A,C,,0,
634,24,1,1.528055556,3.515,scold,PC,1,The doctor is scolded by the professor.,The boxer is scolded by the policeman.,0,P,C,,0,
635,24,1,0.4769444444,2.820555556,slap,AC,0,The cowboy slaps the ballerina.,The boxer is slapped by the policeman.,0,A,C,,0,
636,24,1,0.4672222222,2.585833333,punch,PC,1,The ballerina is punched by the artist.,The doctor is punched by the cowboy.,0,P,C,,0,
637,24,1,0.7152777778,1.923055556,tickle,AI,0,The soldier tickle the boxer.,The maid tickles the doctor.,1,A,I,,0,
638,24,1,0.8180555556,2.452222222,kiss,PC,0,The monk is kissed by the swimmer.,The clown kisses the artist.,1,P,C,,0,
639,24,1,0.6238888889,2.124166667,slap,AC,1,The cowboy slaps the professor.,Policeman slaps the swimmer.,1,A,C,,2,
640,24,1,0.5955555556,3.506111111,follow,PC,1,The ballerina is followed by the pirate.,The soldier is followed by the nun.,0,P,C,,0,
641,24,0,0.6186111111,2.109444444,kiss,AC,0,The pirate kisses the clown.,Soldier kisses the artist.,1,A,C,,2,
642,24,1,0.5944444444,2.781944444,push,PI,0,The monk is pushen by the policeman.,Cowboy pushes the ballerina.,1,P,I,,2,
643,24,1,0.4527777778,1.884722222,kick,AI,1,The policeman kick the boxer.,Maid kicks the clown.,1,A,I,,2,
644,24,1,0.5069444444,2.434444444,scold,PC,0,The monk is scolded by the swimmer.,Professor scolds the soldier.,1,P,C,,2,
645,25,1,2.599722222,5.928055556,shoot,AI,0,The actress shoot the robber.,The chef shooting the kickboxer,1,A,I,,0,
646,25,0,4.337777778,6.331666667,pull,PI,0,The waitress is pullen by the pirate.,The kickboxer pulling up an oldman,1,P,I,,1,
647,25,0,2.325555556,5.914722222,punch,AC,0,The cowboy punches the nun.,an artist punches the paster,1,A,C,,0,
648,25,1,1.911111111,7.705555556,scold,PC,0,The monk is scolded by the swimmer.,an old man scold the soldier and the standing,1,P,C,,1,
649,25,1,1.461944444,6.301111111,slap,AC,1,The cowboy slaps the professor.,a policeman slaps the swimmer,1,A,C,,0,
650,25,1,3.520833333,3.902777778,punch,PC,0,The policeman is punched by the artist.,a cow box punched the dancing lady,1,P,C,,0,
651,25,0,2.142777778,3.219166667,slap,AC,0,The cowboy slaps the ballerina.,a ballerina slaps the kickboxer,1,A,C,,0,
652,25,1,1.414722222,7.645555556,chase,PC,1,The monk is chased by the policeman.,a thieves chased by the another rowdy,0,P,C,,1,
653,25,0,3.845555556,4.493055556,touch,AI,0,The waitress touch the professor.,a waiter touches the swimmer man,1,A,I,,0,
654,25,1,2.222777778,4.245833333,push,PI,0,The monk is pushen by the policeman.,a cowboy puches the dancing lady,1,P,I,,0,
655,25,1,2.411944444,3.797777778,kiss,AC,0,The pirate kisses the clown.,an artist kisses the army man,1,A,C,,0,
656,25,1,1.754166667,7.5775,tickle,PI,1,The robber is ticklen by the soldier.,a lady tickle the churches father,1,P,I,,1,
657,25,1,0.9219444444,3.770277778,punch,AC,1,The cowboy punches the swimmer.,an artist punches the jocker man,1,A,C,,0,
658,25,1,1.7875,7.271388889,chase,PC,0,The swimmer is chased by the nun.,a doctor is chased by the nurse,0,P,C,,0,
659,25,1,2.063888889,4.468055556,follow,AC,1,The nun follows the doctor.,a rowdy follow the police man,1,A,C,,1,
660,25,1,0.9452777778,5.463611111,kiss,PC,0,The monk is kissed by the swimmer.,an artist lady kisses the jocker,1,P,C,,0,
661,25,1,0.8019444444,4.398333333,push,AI,1,The chef push the clown.,a cowboy pushes the swimmer,1,A,I,,0,
662,25,0,1.853055556,3.775277778,follow,PC,0,The ballerina is followed by the pirate.,the nun follows the boxer,1,P,C,,0,
663,25,1,1.455,2.772777778,kiss,AC,1,The artist kisses the ballerina.,the nun kisses the boxer,1,A,C,,0,
664,25,1,1.819722222,3.936944444,scold,PC,1,The doctor is scolded by the professor.,the kickboxer scold by the policeman,0,P,C,,0,
665,25,1,0.9197222222,2.725555556,chase,AC,0,The policeman chases the robber.,the policeman chases the swimmer,1,A,C,,0,
666,25,1,1.219722222,2.636944444,touch,PI,1,The doctor is touchen by the waitress.,the policeman touches the clown,1,P,I,,0,
667,25,1,6.618333333,3.908888889,kick,AI,1,The policeman kick the boxer.,a waitress kick the clown,1,A,I,,1,
668,25,1,3.345555556,4.4925,kick,PI,0,The clown is kicken by the nun.,the robber kicked by the lady waiter,0,P,I,,1,
669,25,1,1.313611111,3.855833333,tickle,AI,0,The soldier tickle the boxer.,the waiterlady tickle the doctor,1,A,I,,1,
670,25,1,1.85,3.752777778,follow,PC,1,The ballerina is followed by the pirate.,the nun follow the army man,1,P,C,,1,
671,25,1,1.185555556,2.734722222,follow,AC,0,The nun follows the cowboy.,the rowdy follow the doctor,1,A,C,,1,
672,25,0,1.280555556,3.2775,shoot,PI,1,The ballerina is shooted by the artist.,the chef shoot the swimmer,1,P,I,,1,
673,25,1,1.234722222,5.0225,scold,AC,1,The policeman scolds the doctor.,a waiter scold by the professor,0,A,C,,1,
674,25,1,0.9830555556,5.285833333,kiss,PC,1,The boxer is kissed by the artist.,the  nun kiss the ballerina,1,P,C,,1,
675,25,1,1.406388889,3.087777778,chase,AC,1,The nun chases the sailor.,the policeman chases the robber,1,A,C,,0,
676,25,1,0.565,3.261666667,slap,PC,1,The clown is slapped by the policeman.,the cow boy slaps the sailor,1,P,C,,2,
677,25,1,0.7083333333,3.486666667,pull,AI,1,The boxer pull the soldier.,the rowdy pull the ballerina,1,A,I,,1,
678,25,1,0.9038888889,3.856388889,punch,PC,1,The ballerina is punched by the artist.,the cowboy punched the doctor,1,P,C,,0,
679,25,1,2.064444444,3.363888889,scold,AC,0,The waitress scolds the boxer.,the ballerina scold by the polieman,0,A,C,,1,
680,25,1,0.6177777778,4.345,slap,PC,0,The nurse is slapped by  the policeman.,the ballerina slapped by the cowboy,0,P,C,,1,
681,26,1,2.970277778,4.596388889,kick,AI,1,The policeman kick the boxer.,The Waitress kicks the Clown.,1,A,I,,0,
682,26,0,1.4825,7.126666667,tickle,PI,1,The robber is ticklen by the soldier.,The Waitress tickles the Friar.,1,P,I,,0,
683,26,1,0.5569444444,6.460833333,scold,AC,1,The policeman scolds the doctor.,The Professor scolds the Sailor.,1,A,C,,0,
684,26,1,1.381111111,4.647777778,punch,PC,0,The policeman is punched by the artist.,The Cowboy punches the Ballerina.,1,P,C,,0,
685,26,1,0.6272222222,4.231666667,chase,AC,0,The policeman chases the robber.,The Police Man chases the swimmer.,1,A,C,,2,
686,26,1,0.7177777778,3.815277778,pull,PI,0,The waitress is pullen by the pirate.,The Boxer pulls the Clown.,1,P,I,,0,
687,26,1,0.5283333333,16.02583333,slap,AC,0,The cowboy slaps the ballerina.,The Officer slaps the boxer,1,A,C,,0,
688,26,1,5.157777778,7.443333333,chase,PC,0,The swimmer is chased by the nun.,The Waitress chases the Doctor.,1,P,C,,0,
689,26,1,2.144444444,3.782777778,scold,AC,0,The waitress scolds the boxer.,The Officer scolds the Ballerina.,1,A,C,,0,
690,26,1,0.8666666667,3.684722222,chase,PC,1,The monk is chased by the policeman.,The Pirate chases the Robber.,1,P,C,,0,
691,26,1,0.8419444444,4.839444444,kiss,AC,0,The pirate kisses the clown.,The Soldier and The Artist kiss.,,A,C,,2,
692,26,1,1.120833333,4.161388889,push,PI,0,The monk is pushen by the policeman.,The Cowboy pushes the Ballerina.,1,P,I,,0,
693,26,1,0.7883333333,5.571388889,slap,AC,1,The cowboy slaps the professor.,The Office slaps the Swimmer.,1,A,C,,0,
694,26,1,0.6588888889,6.613333333,kiss,PC,0,The monk is kissed by the swimmer.,The Artist kisses The Clown.,1,P,C,,0,
695,26,1,7.318333333,4.858888889,push,AI,1,The chef push the clown.,The Cowboy pushes The Swimmer.,1,A,I,,0,
696,26,1,0.7288888889,4.487222222,kick,PI,0,The clown is kicken by the nun.,The Waitress kicks The Robber.,1,P,I,,0,
697,26,1,0.4472222222,4.152777778,touch,AI,0,The waitress touch the professor.,The Sailor touches The Swimmer.,1,A,I,,0,
698,26,1,0.6747222222,4.406944444,scold,PC,0,The monk is scolded by the swimmer.,The Professor scolds The Soildier.,1,P,C,,0,
699,26,1,0.5994444444,3.75,punch,AC,1,The cowboy punches the swimmer.,The Artist punches The Clown.,1,A,C,,0,
700,26,1,0.8663888889,3.296666667,kiss,PC,1,The boxer is kissed by the artist.,The Nun kisses the Ballerina.,1,P,C,,0,
701,26,1,1.544166667,6.2325,chase,AC,1,The nun chases the sailor.,The Officer chases The Robber.,1,A,C,,0,
702,26,1,0.9727777778,5.084722222,shoot,PI,1,The ballerina is shooted by the artist.,The Cook shoots The Swimmer.,1,P,I,,0,
703,26,1,4.205833333,5.587222222,follow,AC,0,The nun follows the cowboy.,The Pirate follows The Doctor.,1,A,C,,0,
704,26,1,1.241666667,4.699722222,punch,PC,1,The ballerina is punched by the artist.,The Cowboy punches The Doctor.,1,P,C,,0,
705,26,1,0.5,24.89861111,shoot,AI,0,The actress shoot the robber.,The Chef shoots The Boxer.,1,A,I,,0,
706,26,1,8.888888889,3.531111111,touch,PI,1,The doctor is touchen by the waitress.,The Sailor touches The Clown.,1,P,I,,0,
707,26,1,0.5869444444,6.920833333,pull,AI,1,The boxer pull the soldier.,The Pirate pulls The Ballerina.,1,A,I,,0,
708,26,1,4.235555556,4.764444444,slap,PC,0,The nurse is slapped by  the policeman.,The Cowboy slaps The Ballerina.,1,P,C,,0,
709,26,1,11.155,4.344166667,tickle,AI,0,The soldier tickle the boxer.,The Waitress tickles The Doctor.,1,A,I,,0,
710,26,1,0.5705555556,4.1975,follow,PC,1,The ballerina is followed by the pirate.,The Nun follows The Soldier.,1,P,C,,0,
711,26,1,0.6705555556,2.798888889,kiss,AC,1,The artist kisses the ballerina.,The Nun kisses The Boxer.,1,A,C,,0,
712,26,1,0.9097222222,4.651388889,slap,PC,1,The clown is slapped by the policeman.,The Sailor is slapped by The Cowboy.,0,P,C,,0,
713,26,1,0.6061111111,4.391388889,punch,AC,0,The cowboy punches the nun.,The Artist punches The Monk.,1,A,C,,0,
714,26,1,1.231666667,12.96611111,scold,PC,1,The doctor is scolded by the professor.,The Officer scolds the Boxer.,1,P,C,,0,
715,26,1,1.358888889,4.681388889,follow,AC,1,The nun follows the doctor.,The Pirate follows the Sailor.,1,A,C,,0,
716,26,1,4.234444444,17.21138889,follow,PC,0,The ballerina is followed by the pirate.,The Nun follows the Boxer.,1,P,C,,0,
717,27,0,2.559166667,9.631944444,slap,AC,0,The cowboy slaps the ballerina.,A policeman slaps a boxer.,1,A,C,,0,
718,27,0,3.077222222,5.109722222,slap,PC,0,The nurse is slapped by  the policeman.,A cowboy slaps a dancer.,1,P,C,,0,
719,27,1,2.178611111,4.281944444,scold,AC,0,The waitress scolds the boxer.,A policeman scolds a dancer.,1,A,C,,0,
720,27,1,1.142222222,7.233055556,follow,PC,1,The ballerina is followed by the pirate.,A person follows a soldier.,1,P,C,,0,
721,27,0,1.6,5.953055556,push,AI,1,The chef push the clown.,A cowboy pushes a swimmer away.,1,A,I,,0,
722,27,1,1.170555556,4.236944444,chase,PC,1,The monk is chased by the policeman.,A pirate chases a robber.,1,P,C,,0,
723,27,1,1.274166667,4.606111111,kiss,AC,1,The artist kisses the ballerina.,A nun kisses a boxer.,1,A,C,,0,
724,27,1,0.7416666667,4.116388889,kiss,PC,1,The boxer is kissed by the artist.,A nun sends a dancer a kiss.,,P,C,,2,
725,27,0,1.066388889,4.147222222,follow,AC,0,The nun follows the cowboy.,A pirate follows a doctor.,1,A,C,,0,
726,27,1,0.8819444444,6.401666667,scold,PC,1,The doctor is scolded by the professor.,A policeman scolds a boxer.,1,P,C,,0,
727,27,1,1.509166667,6.814166667,touch,AI,0,The waitress touch the professor.,A sailor touches a swimmer.,1,A,I,,0,
728,27,0,0.8405555556,3.730833333,shoot,PI,1,The ballerina is shooted by the artist.,The chef shoots the swimmer.,1,P,I,,0,
729,27,1,0.9097222222,5.080833333,follow,AC,1,The nun follows the doctor.,A pirate follows a sailor.,1,A,C,,0,
730,27,1,0.9769444444,5.213611111,follow,PC,0,The ballerina is followed by the pirate.,A nun follows a boxer.,1,P,C,,0,
731,27,0,0.8161111111,5.971944444,kick,AI,1,The policeman kick the boxer.,The waitress kicks the customer.,1,A,I,,0,
732,27,1,1.202222222,3.384722222,pull,PI,0,The waitress is pullen by the pirate.,A boxer pulls a clown.,1,P,I,,0,
733,27,1,0.8563888889,5.312222222,punch,AC,1,The cowboy punches the swimmer.,An artist punches a clown.,1,A,C,,0,
734,27,0,0.925,5.332222222,tickle,PI,1,The robber is ticklen by the soldier.,A waitress tickles a monk.,1,P,I,,0,
735,27,1,0.9188888889,5.655277778,chase,AC,1,The nun chases the sailor.,The policeman chases the robber.,1,A,C,,0,
736,27,1,0.7436111111,5.656111111,kick,PI,0,The clown is kicken by the nun.,The waitress kicks the robber.,1,P,I,,0,
737,27,1,0.7316666667,4.6075,slap,AC,1,The cowboy slaps the professor.,A policeman slaps a swimmer.,1,A,C,,0,
738,27,1,0.79,5.660833333,scold,PC,0,The monk is scolded by the swimmer.,A professor scolds a soldier.,1,P,C,,0,
739,27,1,0.7855555556,3.494166667,punch,AC,0,The cowboy punches the nun.,The artist punched a monk.,1,A,C,,0,
740,27,1,0.7413888889,4.306666667,chase,PC,0,The swimmer is chased by the nun.,The doctor is chased by the waitress.,0,P,C,,0,
741,27,0,1.797222222,7.218611111,pull,AI,1,The boxer pull the soldier.,The pirate pulls the ballerina,1,A,I,,0,
742,27,1,0.8416666667,4.111111111,slap,PC,1,The clown is slapped by the policeman.,The cowboy slaps the sailor.,1,P,C,,0,
743,27,1,1.001944444,4.359444444,tickle,AI,0,The soldier tickle the boxer.,The waitress tickles the doctor.,1,A,I,,0,
744,27,1,0.6838888889,5.034444444,punch,PC,1,The ballerina is punched by the artist.,A cowboy punches a doctor.,1,P,C,,0,
745,27,1,1.084444444,3.423055556,shoot,AI,0,The actress shoot the robber.,The chef shoots a boxer.,1,A,I,,0,
746,27,1,1.384722222,7.083888889,punch,PC,0,The policeman is punched by the artist.,The cowboy punched a dancer.,1,P,C,,0,
747,27,1,2.132222222,6.921666667,chase,AC,0,The policeman chases the robber.,A policeman chases a swimmer.,1,A,C,,0,
748,27,1,0.7688888889,4.766666667,push,PI,0,The monk is pushen by the policeman.,The cowboy pushed the ballerina.,1,P,I,,0,
749,27,1,0.8880555556,4.549166667,kiss,AC,0,The pirate kisses the clown.,The artist kisses a soldier.,1,A,C,,0,
750,27,0,0.6838888889,4.091388889,touch,PI,1,The doctor is touchen by the waitress.,The sailor touched the clown.,1,P,I,,0,
751,27,1,0.8302777778,3.826666667,scold,AC,1,The policeman scolds the doctor.,A professor scolds a sailor.,1,A,C,,0,
752,27,1,0.8136111111,3.806388889,kiss,PC,0,The monk is kissed by the swimmer.,An artist kisses a clown.,1,P,C,,0,
753,28,1,2.602222222,4.257777778,chase,AC,1,The nun chases the sailor.,The police chases the bugler.,1,A,C,,0,
754,28,1,1.134722222,4.082222222,chase,PC,1,The monk is chased by the policeman.,A pirate chases a bugler.,1,P,C,,0,
755,28,1,2.283611111,7.269166667,slap,AC,1,The cowboy slaps the professor.,A swimmer was slapped by the policeman.,0,A,C,,1,
756,28,0,5.731111111,5.296388889,slap,PC,0,The nurse is slapped by  the policeman.,The cowboy is seen slapping a ballerina.,,P,C,,2,
757,28,1,1.661944444,3.747222222,slap,AC,0,The cowboy slaps the ballerina.,The policeman slapped a boxer.,1,A,C,,0,
758,28,1,2.270833333,5.275277778,scold,PC,1,The doctor is scolded by the professor.,A policeman scold a boxer.,1,P,C,,1,
759,28,1,1.266111111,6.2325,push,AI,1,The chef push the clown.,A swimmer was pushed by a cowboy.,0,A,I,,1,
760,28,1,1.615555556,4.5275,kiss,PC,1,The boxer is kissed by the artist.,The nun kisses the ballerina.,1,P,C,,0,
761,28,1,3.753055556,4.978055556,shoot,AI,0,The actress shoot the robber.,The chef shot the boxer.,1,A,I,,0,
762,28,1,1.394722222,4.413055556,punch,PC,1,The ballerina is punched by the artist.,The cowboy punched the doctor.,1,P,C,,0,
763,28,1,1.341944444,5.220277778,chase,AC,0,The policeman chases the robber.,The policeman chases the swimmer.,1,A,C,,0,
764,28,1,0.9422222222,5.365277778,slap,PC,1,The clown is slapped by the policeman.,The sailor was slapped by the cowboy.,0,P,C,,0,
765,28,0,2.721944444,3.699444444,touch,AI,0,The waitress touch the professor.,The sailor touch the swimmer.,1,A,I,,1,
766,28,1,1.1175,3.655555556,push,PI,0,The monk is pushen by the policeman.,The cowboy pushed the ballerina.,1,P,I,,0,
767,28,1,0.5744444444,5.661666667,punch,AC,0,The cowboy punches the nun.,The monk was punched by the artist.,0,A,C,,0,
768,28,0,0.7963888889,6.758055556,touch,PI,1,The doctor is touchen by the waitress.,The sailor touched the clown.,1,P,I,,0,
769,28,1,1.942222222,6.803611111,pull,AI,1,The boxer pull the soldier.,The pirate pulls the ballerina.,1,A,I,,0,
770,28,1,1.703333333,4.134166667,follow,PC,1,The ballerina is followed by the pirate.,The soldier was followed by the nun.,0,P,C,,0,
771,28,1,0.9236111111,4.461111111,punch,AC,1,The cowboy punches the swimmer.,The artist punched the clown.,1,A,C,,0,
772,28,0,1.086388889,5.512777778,shoot,PI,1,The ballerina is shooted by the artist.,The swimmer is shot by the cook.,0,P,I,,0,
773,28,1,0.8527777778,4.133333333,tickle,AI,0,The soldier tickle the boxer.,The waitress tickle the doctor.,1,A,I,,1,
774,28,1,0.6888888889,6.77,scold,PC,0,The monk is scolded by the swimmer.,The professor scold the soldier.,1,P,C,,1,
775,28,1,1.093611111,5.716944444,kiss,AC,0,The pirate kisses the clown.,The artist kiss the solder.,1,A,C,,1,
776,28,1,0.7658333333,3.445555556,chase,PC,0,The swimmer is chased by the nun.,The waitress chased the doctor.,1,P,C,,0,
777,28,1,0.9791666667,5.036666667,kiss,AC,1,The artist kisses the ballerina.,The nun kisses the boxer.,1,A,C,,0,
778,28,1,0.795,3.508055556,pull,PI,0,The waitress is pullen by the pirate.,The boxer pulls the clown.,1,P,I,,0,
779,28,1,0.7083333333,4.118888889,scold,AC,0,The waitress scolds the boxer.,The policeman scolds the ballerina.,1,A,C,,0,
780,28,1,0.5369444444,3.706111111,kick,PI,0,The clown is kicken by the nun.,The robber is kicked by the waitress.,0,P,I,,0,
781,28,1,0.4847222222,3.1975,follow,AC,0,The nun follows the cowboy.,The pirate follows the doctor.,1,A,C,,0,
782,28,1,0.715,3.647777778,kiss,PC,0,The monk is kissed by the swimmer.,The artist kisses the clown.,1,P,C,,0,
783,28,1,0.92,3.173888889,scold,AC,1,The policeman scolds the doctor.,The professor scolds the sailor.,1,A,C,,0,
784,28,1,0.4236111111,3.903611111,punch,PC,0,The policeman is punched by the artist.,The cowboy punched the ballerina.,1,P,C,,0,
785,28,1,0.69,2.787222222,kick,AI,1,The policeman kick the boxer.,The waitress kicked the clown.,1,A,I,,0,
786,28,0,0.7172222222,7.260277778,tickle,PI,1,The robber is ticklen by the soldier.,The waitress tickle the monk.,1,P,I,,1,
787,28,1,0.8266666667,3.191666667,follow,AC,1,The nun follows the doctor.,The pirate follows the sailor.,1,A,C,,0,
788,28,1,0.9536111111,3.028333333,follow,PC,0,The ballerina is followed by the pirate.,The boxer is followed by the nun.,0,P,C,,0,
789,30,1,3.884722222,5.74,pull,AI,1,The boxer pull the soldier.,The pirate is pulling the ballerina.,1,A,I,,0,
790,30,1,1.460833333,4.891111111,scold,PC,1,The doctor is scolded by the professor.,The policeman scolds the boxer.,1,P,C,,0,
791,30,1,0.8555555556,10.09611111,chase,AC,1,The nun chases the sailor.,The policeman chases the burglar.,1,A,C,,0,
792,30,0,1.217777778,6.840833333,punch,PC,0,The policeman is punched by the artist.,The ballerina is punched by the cowboy.,0,P,C,,0,
793,30,1,0.9111111111,7.497777778,tickle,AI,0,The soldier tickle the boxer.,The doctor is tickled by the waitress.,0,A,I,,0,
794,30,1,4.658333333,6.245555556,kiss,PC,0,The monk is kissed by the swimmer.,The clown is kissed by the artist.,0,P,C,,0,
795,30,1,1.851944444,3.650277778,punch,AC,1,The cowboy punches the swimmer.,The artist punches the clown.,1,A,C,,0,
796,30,0,1.283055556,6.696666667,tickle,PI,1,The robber is ticklen by the soldier.,The friar is tickled by the waitress.,0,P,I,,0,
797,30,1,1.152777778,3.9425,slap,AC,0,The cowboy slaps the ballerina.,The policeman slaps the boxer.,1,A,C,,0,
798,30,1,0.4880555556,3.528333333,slap,PC,0,The nurse is slapped by  the policeman.,The cowboy slaps the ballerina.,1,P,C,,0,
799,30,0,0.5808333333,3.429444444,push,AI,1,The chef push the clown.,The cowboy pushes the swimmer.,1,A,I,,0,
800,30,1,2.065555556,3.256666667,chase,PC,1,The monk is chased by the policeman.,The pirate chases the robber.,1,P,C,,0,
801,30,1,1.013611111,6.810277778,kiss,AC,1,The artist kisses the ballerina.,The nun kisses the boxer.,1,A,C,,0,
802,30,1,0.7352777778,3.748888889,kick,PI,0,The clown is kicken by the nun.,The waitress kicks the robber.,1,P,I,,0,
803,30,1,1.194444444,7.63,scold,AC,1,The policeman scolds the doctor.,The sailor is scolded by the principal.,0,A,C,,0,
804,30,1,0.85,7.079444444,scold,PC,0,The monk is scolded by the swimmer.,The soldier is scolded by the principal.,0,P,C,,0,
805,30,1,0.5525,3.699722222,chase,AC,0,The policeman chases the robber.,The policeman chases the swimmer.,1,A,C,,0,
806,30,1,1.148611111,4.375833333,follow,PC,1,The ballerina is followed by the pirate.,The nun follows the soldier.,1,P,C,,0,
807,30,1,1.373333333,4.168055556,follow,AC,1,The nun follows the doctor.,The pirate follows the sailor.,1,A,C,,0,
808,30,1,0.6922222222,3.811944444,follow,PC,0,The ballerina is followed by the pirate.,The nun follows the boxer.,1,P,C,,0,
809,30,1,0.7713888889,3.895277778,follow,AC,0,The nun follows the cowboy.,The pirate is following the doctor.,1,A,C,,0,
810,30,1,1.164166667,3.5275,punch,PC,1,The ballerina is punched by the artist.,The doctor is punched by the cowboy.,0,P,C,,0,
811,30,1,0.4944444444,4.445,scold,AC,0,The waitress scolds the boxer.,The ballerina is scolded by the policeman.,0,A,C,,0,
812,30,0,0.7811111111,3.24,shoot,PI,1,The ballerina is shooted by the artist.,The chef shoots the swimmer.,1,P,I,,0,
813,30,0,1.3425,4.835555556,kick,AI,1,The policeman kick the boxer.,The waitress kicked the clown.,1,A,I,,0,
814,30,1,0.6933333333,2.931388889,pull,PI,0,The waitress is pullen by the pirate.,The boxer pulls the clown.,1,P,I,,0,
815,30,1,1.625555556,6.246666667,punch,AC,0,The cowboy punches the nun.,The artist punches the monk.,1,A,C,,0,
816,30,1,4.467222222,4.643888889,chase,PC,0,The swimmer is chased by the nun.,The doctor is chased by the waitress.,0,P,C,,0,
817,30,1,2.850555556,4.089722222,touch,AI,0,The waitress touch the professor.,The swimmer is touched by the sailor.,0,A,I,,0,
818,30,1,2.030555556,4.2325,slap,PC,1,The clown is slapped by the policeman.,The sailor is slapped by the cowboy.,0,P,C,,0,
819,30,1,0.4727777778,3.84,kiss,AC,0,The pirate kisses the clown.,The soldier is kissed by the artist.,0,A,C,,0,
820,30,1,0.7788888889,3.649722222,push,PI,0,The monk is pushen by the policeman.,The ballerina is pushed by the cowboy.,0,P,I,,0,
821,30,1,0.5869444444,3.142222222,slap,AC,1,The cowboy slaps the professor.,The policeman slaps the swimmer.,1,A,C,,0,
822,30,1,1.249166667,3.883611111,kiss,PC,1,The boxer is kissed by the artist.,The ballerina is kissed by the nun.,0,P,C,,0,
823,30,1,0.7525,3.665,shoot,AI,0,The actress shoot the robber.,The chef shoots the boxer.,1,A,I,,0,
824,30,0,0.5377777778,4.286111111,touch,PI,1,The doctor is touchen by the waitress.,The clown is touched by the sailor.,0,P,I,,0,
825,31,1,1.730277778,5.605833333,punch,AC,0,The cowboy punches the nun.,The artist punches the monk.,1,A,C,,0,
826,31,1,2.0675,4.1175,pull,PI,0,The waitress is pullen by the pirate.,The man uses the rope to pull another man.,,P,I,,2,
827,31,0,0.9063888889,3.693055556,scold,AC,0,The waitress scolds the boxer.,The girl looks down as she is scolded.,0,A,C,,0,
828,31,1,3.177777778,4.090555556,chase,AC,0,The policeman chases the robber.,The wet man is chased by the policeman.,0,A,C,,0,
829,31,0,0.9447222222,3.487222222,tickle,PI,1,The robber is ticklen by the soldier.,The monk laughs as he is tickled.,,P,I,,2,
830,31,0,1.1125,3.907222222,pull,AI,1,The boxer pull the soldier.,The soldier tries in vain to pull the girl with a rope.,1,A,I,,1,
831,31,1,1.038333333,5.498611111,follow,PC,1,The ballerina is followed by the pirate.,The nun follows behind the soldier.,1,P,C,,1,
832,31,0,1.238055556,3.879722222,touch,AI,0,The waitress touch the professor.,The sailor touches the wet man.,1,A,I,,0,
833,31,1,0.8755555556,4.784444444,punch,PC,1,The ballerina is punched by the artist.,The doctor takes a punch from the cowboy.,,P,C,,2,
834,31,1,0.4972222222,4.941944444,slap,AC,1,The cowboy slaps the professor.,The swimmer receives a slap from the policeman.,,A,C,,2,
835,31,0,0.6061111111,4.824166667,slap,PC,0,The nurse is slapped by  the policeman.,The cowboy gives the ballerina a slap with his hand.,,P,C,,2,
836,31,1,0.6372222222,2.565555556,chase,AC,1,The nun chases the sailor.,The robber is chased by the police.,0,A,C,,0,
837,31,1,0.7880555556,3.803055556,push,PI,0,The monk is pushen by the policeman.,The cowboy is about to push the girl.,,P,I,,1,
838,31,1,1.256388889,3.234722222,kick,AI,1,The policeman kick the boxer.,She gives the clown a kick in the shin.,,A,I,,2,
839,31,0,0.8430555556,4.136111111,push,AI,1,The chef push the clown.,The swimmer is pushed by the cowboy.,0,A,I,,0,
